SlowInstrKey.keys,SlowInstrKey.rt,SlowInstrLoop.thisRepN,SlowInstrLoop.thisTrialN,SlowInstrLoop.thisN,SlowInstrLoop.thisIndex,SlowInstrLoop.ran,SlowInstructions,participant,date,expName,psychopyVersion,OS,frameRate,key_resp_5.keys,key_resp_5.corr,key_resp_5.rt,key_resp_4.keys,key_resp_4.rt,slowpracticeloop.thisRepN,slowpracticeloop.thisTrialN,slowpracticeloop.thisN,slowpracticeloop.thisIndex,slowpracticeloop.ran,practicetext,practicecorrect,key_resp_3.keys,key_resp_3.rt,SlowKey.keys,SlowKey.corr,SlowKey.rt,encouragekey.keys,SlowLoop.thisRepN,SlowLoop.thisTrialN,SlowLoop.thisN,SlowLoop.thisIndex,SlowLoop.ran,Statement,Correct,encouragekey.rt,endstudykey.keys
space,9.6448,0,0,0,0,1,"You will be shown a total of 80 statements pertaining to mathematics, science, and social concepts. Your task is to determine whether each statement is true or false. Some statements will be difficult and some will be easier.  We do not expect you to know the correct answer for all 80 statements.  Press SPACE to Continue",1372,2022-04-06_19h08.00.411,ImplicitInfinitySC-SLOWTASK,2021.2.3,Win32,29.99670036,,,,,,,,,,,,,,,,,,,,,,,,,,,
,,0,1,1,1,1,"We urge you to try your best and take your time. Each statement will appear on your screen and you will have 10 seconds to decide if it is true or false. You will hear a beep at 6 seconds that will prompt you to respond within the next 4 seconds. If you fail to respond within this time, the trial will be counted as incorrect and the next statement will appear. Press SPACE to continue",1372,2022-04-06_19h08.00.411,ImplicitInfinitySC-SLOWTASK,2021.2.3,Win32,29.99670036,,,,,,,,,,,,,,,,,,,,,,,,,,,
space,15.0307,0,2,2,2,1,"If the statement is true, you will press the “F” key on your keyboard with your left pointer finger; if the statement is false, you will press the “J” key on your keyboard with your right pointer finger. Press SPACE to continue",1372,2022-04-06_19h08.00.411,ImplicitInfinitySC-SLOWTASK,2021.2.3,Win32,29.99670036,,,,,,,,,,,,,,,,,,,,,,,,,,,
space,2.994,0,3,3,3,1,Take your time and go slowly! You have 10 seconds to answer! Press SPACE to continue. ,1372,2022-04-06_19h08.00.411,ImplicitInfinitySC-SLOWTASK,2021.2.3,Win32,29.99670036,,,,,,,,,,,,,,,,,,,,,,,,,,,
,,,,,,,,1372,2022-04-06_19h08.00.411,ImplicitInfinitySC-SLOWTASK,2021.2.3,Win32,29.99670036,j,1,2.7028,space,1.341,0,0,0,8,1,Mississippi is a country,j,,,,,,,,,,,,,,,
,,,,,,,,1372,2022-04-06_19h08.00.411,ImplicitInfinitySC-SLOWTASK,2021.2.3,Win32,29.99670036,j,1,2.2734,space,2.525,0,1,1,6,1,Jupiter is the planet we live on,j,,,,,,,,,,,,,,,
,,,,,,,,1372,2022-04-06_19h08.00.411,ImplicitInfinitySC-SLOWTASK,2021.2.3,Win32,29.99670036,j,1,1.8946,space,2.9866,0,2,2,5,1,A truck is an animal,j,,,,,,,,,,,,,,,
,,,,,,,,1372,2022-04-06_19h08.00.411,ImplicitInfinitySC-SLOWTASK,2021.2.3,Win32,29.99670036,f,1,1.8326,space,2.0635,0,3,3,3,1,A clock is used to tell time,f,,,,,,,,,,,,,,,
,,,,,,,,1372,2022-04-06_19h08.00.411,ImplicitInfinitySC-SLOWTASK,2021.2.3,Win32,29.99670036,f,1,2.0546,space,2.8667,0,4,4,0,1,A circle is a shape,f,,,,,,,,,,,,,,,
,,,,,,,,1372,2022-04-06_19h08.00.411,ImplicitInfinitySC-SLOWTASK,2021.2.3,Win32,29.99670036,j,1,1.6398,space,2.3676,0,5,5,7,1,The Earth is a star,j,,,,,,,,,,,,,,,
,,,,,,,,1372,2022-04-06_19h08.00.411,ImplicitInfinitySC-SLOWTASK,2021.2.3,Win32,29.99670036,f,1,1.7322,space,2.3573,0,6,6,2,1,Magenta is a color,f,,,,,,,,,,,,,,,
,,,,,,,,1372,2022-04-06_19h08.00.411,ImplicitInfinitySC-SLOWTASK,2021.2.3,Win32,29.99670036,j,1,2.2133,space,1.4676,0,7,7,9,1,Humans cannot eat food,j,,,,,,,,,,,,,,,
,,,,,,,,1372,2022-04-06_19h08.00.411,ImplicitInfinitySC-SLOWTASK,2021.2.3,Win32,29.99670036,f,1,2.9841,space,2.2338,0,8,8,4,1,Humans cannot breathe water,f,,,,,,,,,,,,,,,
,,,,,,,,1372,2022-04-06_19h08.00.411,ImplicitInfinitySC-SLOWTASK,2021.2.3,Win32,29.99670036,f,1,1.8328,space,2.8278,0,9,9,1,1,Dinosaurs are extinct,f,,,,,,,,,,,,,,,
,,,,,,,,1372,2022-04-06_19h08.00.411,ImplicitInfinitySC-SLOWTASK,2021.2.3,Win32,29.99670036,,,,space,0.933,,,,,,,,space,6.0125,f,1,1.6502,,0,0,0,51,1,Tigers reproduce,f,,
,,,,,,,,1372,2022-04-06_19h08.00.411,ImplicitInfinitySC-SLOWTASK,2021.2.3,Win32,29.99670036,,,,space,2.0834,,,,,,,,,,f,1,2.7515,,0,1,1,4,1,A minute cannot go on forever,f,,
,,,,,,,,1372,2022-04-06_19h08.00.411,ImplicitInfinitySC-SLOWTASK,2021.2.3,Win32,29.99670036,,,,space,3.0532,,,,,,,,,,j,1,1.6236,,0,2,2,124,1,The president of the United States is Oprah,j,,
,,,,,,,,1372,2022-04-06_19h08.00.411,ImplicitInfinitySC-SLOWTASK,2021.2.3,Win32,29.99670036,,,,space,2.6616,,,,,,,,,,j,1,2.128,,0,3,3,3,1,A minute is endless,j,,
,,,,,,,,1372,2022-04-06_19h08.00.411,ImplicitInfinitySC-SLOWTASK,2021.2.3,Win32,29.99670036,,,,space,3.1686,,,,,,,,,,j,1,1.4829,,0,4,4,82,1,Stones reproduce,j,,
,,,,,,,,1372,2022-04-06_19h08.00.411,ImplicitInfinitySC-SLOWTASK,2021.2.3,Win32,29.99670036,,,,space,2.6009,,,,,,,,,,f,1,1.5451,,0,5,5,50,1,Turtles need nutrients,f,,
,,,,,,,,1372,2022-04-06_19h08.00.411,ImplicitInfinitySC-SLOWTASK,2021.2.3,Win32,29.99670036,,,,space,1.9579,,,,,,,,,,f,1,1.1447,,0,6,6,91,1,A circle is a shape,f,,
,,,,,,,,1372,2022-04-06_19h08.00.411,ImplicitInfinitySC-SLOWTASK,2021.2.3,Win32,29.99670036,,,,space,2.8493,,,,,,,,,,f,1,1.5662,,0,7,7,103,1,The United States is a country,f,,
,,,,,,,,1372,2022-04-06_19h08.00.411,ImplicitInfinitySC-SLOWTASK,2021.2.3,Win32,29.99670036,,,,space,3.4797,,,,,,,,,,f,1,1.0075,,0,8,8,94,1,Orange is a color,f,,
,,,,,,,,1372,2022-04-06_19h08.00.411,ImplicitInfinitySC-SLOWTASK,2021.2.3,Win32,29.99670036,,,,space,3.5819,,,,,,,,,,j,1,2.3641,,0,9,9,109,1,A square is a color,j,,
,,,,,,,,1372,2022-04-06_19h08.00.411,ImplicitInfinitySC-SLOWTASK,2021.2.3,Win32,29.99670036,,,,space,2.732,,,,,,,,,,f,1,2.2399,,0,10,10,71,1,Oaks reproduce,f,,
,,,,,,,,1372,2022-04-06_19h08.00.411,ImplicitInfinitySC-SLOWTASK,2021.2.3,Win32,29.99670036,,,,space,2.2442,,,,,,,,,,f,1,2.8035,,0,11,11,76,1,Pollen has a molecular structure,f,,
,,,,,,,,1372,2022-04-06_19h08.00.411,ImplicitInfinitySC-SLOWTASK,2021.2.3,Win32,29.99670036,,,,space,2.2316,,,,,,,,,,f,1,2.2385,,0,12,12,54,1,Dumbells are composed of matter,f,,
,,,,,,,,1372,2022-04-06_19h08.00.411,ImplicitInfinitySC-SLOWTASK,2021.2.3,Win32,29.99670036,,,,space,2.6338,,,,,,,,,,j,1,2.1648,,0,13,13,36,1,Numbers cannot go on forever,j,,
,,,,,,,,1372,2022-04-06_19h08.00.411,ImplicitInfinitySC-SLOWTASK,2021.2.3,Win32,29.99670036,,,,space,2.1875,,,,,,,,,,j,1,2.0402,,0,14,14,59,1,Comets are alive,j,,
,,,,,,,,1372,2022-04-06_19h08.00.411,ImplicitInfinitySC-SLOWTASK,2021.2.3,Win32,29.99670036,,,,space,3.1653,,,,,,,,,,f,1,1.242,,0,15,15,48,1,Crocodiles are alive,f,,
,,,,,,,,1372,2022-04-06_19h08.00.411,ImplicitInfinitySC-SLOWTASK,2021.2.3,Win32,29.99670036,,,,space,1.9128,,,,,,,,,,f,1,1.6734,,0,16,16,33,1,Numbers are infinite,f,,
,,,,,,,,1372,2022-04-06_19h08.00.411,ImplicitInfinitySC-SLOWTASK,2021.2.3,Win32,29.99670036,,,,space,2.2346,,,,,,,,,,j,1,2.0773,,0,17,17,63,1,Color can be put in a container,j,,
,,,,,,,,1372,2022-04-06_19h08.00.411,ImplicitInfinitySC-SLOWTASK,2021.2.3,Win32,29.99670036,,,,space,3.105,,,,,,,,,,j,1,1.8938,,0,18,18,67,1,Gravity has a molecular structure,j,,
,,,,,,,,1372,2022-04-06_19h08.00.411,ImplicitInfinitySC-SLOWTASK,2021.2.3,Win32,29.99670036,,,,space,2.1699,,,,,,,,,,f,1,1.9486,,0,19,19,68,1,Algae is alive,f,,
,,,,,,,,1372,2022-04-06_19h08.00.411,ImplicitInfinitySC-SLOWTASK,2021.2.3,Win32,29.99670036,,,,space,3.0071,,,,,,,,,,j,1,1.8162,,0,20,20,117,1,Dolphins cannot swim in the ocean,j,,
,,,,,,,,1372,2022-04-06_19h08.00.411,ImplicitInfinitySC-SLOWTASK,2021.2.3,Win32,29.99670036,,,,space,1.7961,,,,,,,,,,j,1,3.2772,,0,21,21,85,1,Thoughts are composed of matter,j,,
,,,,,,,,1372,2022-04-06_19h08.00.411,ImplicitInfinitySC-SLOWTASK,2021.2.3,Win32,29.99670036,,,,space,2.0596,,,,,,,,,,f,1,2.3144,,0,22,22,72,1,Mushrooms reproduce,f,,
,,,,,,,,1372,2022-04-06_19h08.00.411,ImplicitInfinitySC-SLOWTASK,2021.2.3,Win32,29.99670036,,,,space,2.634,,,,,,,,,,f,1,1.077,,0,23,23,89,1,A square is a shape,f,,
,,,,,,,,1372,2022-04-06_19h08.00.411,ImplicitInfinitySC-SLOWTASK,2021.2.3,Win32,29.99670036,,,,space,2.2851,,,,,,,,,,f,1,1.5305,,0,24,24,55,1,Concrete is composed of matter,f,,
,,,,,,,,1372,2022-04-06_19h08.00.411,ImplicitInfinitySC-SLOWTASK,2021.2.3,Win32,29.99670036,,,,space,2.8524,,,,,,,,,,f,1,2.6635,,0,25,25,101,1,Jupiter is in our solar system,f,,
,,,,,,,,1372,2022-04-06_19h08.00.411,ImplicitInfinitySC-SLOWTASK,2021.2.3,Win32,29.99670036,,,,space,2.4362,,,,,,,,,,j,1,1.518,,0,26,26,87,1,Dreams have a molecular structure,j,,
,,,,,,,,1372,2022-04-06_19h08.00.411,ImplicitInfinitySC-SLOWTASK,2021.2.3,Win32,29.99670036,,,,space,2.1285,,,,,,,,,,j,1,2.2586,,0,27,27,26,1,Space has an end,j,,
,,,,,,,,1372,2022-04-06_19h08.00.411,ImplicitInfinitySC-SLOWTASK,2021.2.3,Win32,29.99670036,,,,space,2.1164,,,,,,,,,,f,1,1.8746,,0,28,28,102,1,The Earth is a planet,f,,
,,,,,,,,1372,2022-04-06_19h08.00.411,ImplicitInfinitySC-SLOWTASK,2021.2.3,Win32,29.99670036,,,,space,3.5968,,,,,,,,,,j,1,1.8857,,0,29,29,114,1,Lightbulbs are made of clay,j,,
,,,,,,,,1372,2022-04-06_19h08.00.411,ImplicitInfinitySC-SLOWTASK,2021.2.3,Win32,29.99670036,,,,space,2.034,,,,,,,,,,f,1,3.2136,,0,30,30,10,1,An inch has an end,f,,
,,,,,,,,1372,2022-04-06_19h08.00.411,ImplicitInfinitySC-SLOWTASK,2021.2.3,Win32,29.99670036,,,,space,1.8146,,,,,,,,,,j,1,1.3643,,0,31,31,110,1,A triangle is an animal,j,,
,,,,,,,,1372,2022-04-06_19h08.00.411,ImplicitInfinitySC-SLOWTASK,2021.2.3,Win32,29.99670036,,,,space,2.9954,,,,,,,,,,j,1,1.6162,,0,32,32,123,1,Mississippi is a country,j,,
,,,,,,,,1372,2022-04-06_19h08.00.411,ImplicitInfinitySC-SLOWTASK,2021.2.3,Win32,29.99670036,,,,space,2.6152,,,,,,,,,,j,1,2.134,,0,33,33,32,1,Numbers are finite,j,,
,,,,,,,,1372,2022-04-06_19h08.00.411,ImplicitInfinitySC-SLOWTASK,2021.2.3,Win32,29.99670036,,,,space,2.8968,,,,,,,,,,f,1,1.4957,,0,34,34,56,1,Diamonds have a molecular structure,f,,
,,,,,,,,1372,2022-04-06_19h08.00.411,ImplicitInfinitySC-SLOWTASK,2021.2.3,Win32,29.99670036,,,,space,2.3877,,,,,,,,,,j,1,1.8312,,0,35,35,108,1,This sentence is written in Spanish,j,,
,,,,,,,,1372,2022-04-06_19h08.00.411,ImplicitInfinitySC-SLOWTASK,2021.2.3,Win32,29.99670036,,,,space,2.2726,,,,,,,,,,j,1,2.161,,0,36,36,16,1,Time is finite,j,,
,,,,,,,,1372,2022-04-06_19h08.00.411,ImplicitInfinitySC-SLOWTASK,2021.2.3,Win32,29.99670036,,,,space,2.2705,,,,,,,,,,j,1,1.8485,,0,37,37,64,1,Echoes are composed of matter,j,,
,,,,,,,,1372,2022-04-06_19h08.00.411,ImplicitInfinitySC-SLOWTASK,2021.2.3,Win32,29.99670036,,,,space,1.7513,,,,,,,,,,j,1,3.1837,,0,38,38,112,1,Dinosaurs are not extinct,j,,
,,,,,,,,1372,2022-04-06_19h08.00.411,ImplicitInfinitySC-SLOWTASK,2021.2.3,Win32,29.99670036,,,,space,2.8231,,,,,,,,,,j,1,1.8738,,0,39,39,11,1,An inch is endless,j,,
,,,,,,,,1372,2022-04-06_19h08.00.411,ImplicitInfinitySC-SLOWTASK,2021.2.3,Win32,29.99670036,,,,space,1.3146,,,,,,,,,,j,1,4.1094,space,0,40,40,6,1,A minute cannot always be further divided,j,0.3542,
,,,,,,,,1372,2022-04-06_19h08.00.411,ImplicitInfinitySC-SLOWTASK,2021.2.3,Win32,29.99670036,,,,space,2.0892,,,,,,,,,,j,1,1.316,,0,41,41,66,1,Music has a molecular structure,j,,
,,,,,,,,1372,2022-04-06_19h08.00.411,ImplicitInfinitySC-SLOWTASK,2021.2.3,Win32,29.99670036,,,,space,1.7074,,,,,,,,,,f,1,3.2915,,0,42,42,23,1,Time can always be further divided,f,,
,,,,,,,,1372,2022-04-06_19h08.00.411,ImplicitInfinitySC-SLOWTASK,2021.2.3,Win32,29.99670036,,,,space,1.6049,,,,,,,,,,j,1,2.7944,,0,43,43,60,1,Robots need nutrients,j,,
,,,,,,,,1372,2022-04-06_19h08.00.411,ImplicitInfinitySC-SLOWTASK,2021.2.3,Win32,29.99670036,,,,space,1.2577,,,,,,,,,,f,1,1.4893,,0,44,44,104,1,The United States has a president,f,,
,,,,,,,,1372,2022-04-06_19h08.00.411,ImplicitInfinitySC-SLOWTASK,2021.2.3,Win32,29.99670036,,,,space,1.8199,,,,,,,,,,f,1,1.9203,,0,45,45,2,1,A minute has an end,f,,
,,,,,,,,1372,2022-04-06_19h08.00.411,ImplicitInfinitySC-SLOWTASK,2021.2.3,Win32,29.99670036,,,,space,1.7724,,,,,,,,,,j,1,2.1427,,0,46,46,41,1,The number five is infinite,j,,
,,,,,,,,1372,2022-04-06_19h08.00.411,ImplicitInfinitySC-SLOWTASK,2021.2.3,Win32,29.99670036,,,,space,1.6002,,,,,,,,,,f,1,1.3798,,0,47,47,92,1,Dinosaurs are extinct,f,,
,,,,,,,,1372,2022-04-06_19h08.00.411,ImplicitInfinitySC-SLOWTASK,2021.2.3,Win32,29.99670036,,,,space,1.8304,,,,,,,,,,f,1,1.9813,,0,48,48,75,1,Frost is composed of matter,f,,
,,,,,,,,1372,2022-04-06_19h08.00.411,ImplicitInfinitySC-SLOWTASK,2021.2.3,Win32,29.99670036,,,,space,2.732,,,,,,,,,,j,1,1.7082,,0,49,49,1,1,A minute is infinite,j,,
,,,,,,,,1372,2022-04-06_19h08.00.411,ImplicitInfinitySC-SLOWTASK,2021.2.3,Win32,29.99670036,,,,space,1.2739,,,,,,,,,,f,1,1.3405,,0,50,50,52,1,Frogs reproduce,f,,
,,,,,,,,1372,2022-04-06_19h08.00.411,ImplicitInfinitySC-SLOWTASK,2021.2.3,Win32,29.99670036,,,,space,1.4608,,,,,,,,,,j,1,1.471,,0,51,51,115,1,Yellow is an animal,j,,
,,,,,,,,1372,2022-04-06_19h08.00.411,ImplicitInfinitySC-SLOWTASK,2021.2.3,Win32,29.99670036,,,,space,1.2727,,,,,,,,,,f,1,1.1599,,0,52,52,69,1,Bacteria are alive,f,,
,,,,,,,,1372,2022-04-06_19h08.00.411,ImplicitInfinitySC-SLOWTASK,2021.2.3,Win32,29.99670036,,,,space,3.8247,,,,,,,,,,j,1,1.9765,,0,53,53,45,1,The number five can go on forever,j,,
,,,,,,,,1372,2022-04-06_19h08.00.411,ImplicitInfinitySC-SLOWTASK,2021.2.3,Win32,29.99670036,,,,space,1.8172,,,,,,,,,,j,1,2.3286,,0,54,54,122,1,The Earth is a star,j,,
,,,,,,,,1372,2022-04-06_19h08.00.411,ImplicitInfinitySC-SLOWTASK,2021.2.3,Win32,29.99670036,,,,space,2.9029,,,,,,,,,,f,1,2.7882,,0,55,55,31,1,Space can always be further divided,f,,
,,,,,,,,1372,2022-04-06_19h08.00.411,ImplicitInfinitySC-SLOWTASK,2021.2.3,Win32,29.99670036,,,,space,3.408,,,,,,,,,,f,1,1.8284,,0,56,56,17,1,Time is infinite,f,,
,,,,,,,,1372,2022-04-06_19h08.00.411,ImplicitInfinitySC-SLOWTASK,2021.2.3,Win32,29.99670036,,,,space,3.1075,,,,,,,,,,j,1,2.1619,,0,57,57,127,1,A zebra is used to write,j,,
,,,,,,,,1372,2022-04-06_19h08.00.411,ImplicitInfinitySC-SLOWTASK,2021.2.3,Win32,29.99670036,,,,space,1.6513,,,,,,,,,,f,1,1.7376,,0,58,58,96,1,Fish can swim in the ocean,f,,
,,,,,,,,1372,2022-04-06_19h08.00.411,ImplicitInfinitySC-SLOWTASK,2021.2.3,Win32,29.99670036,,,,space,2.5179,,,,,,,,,,j,1,1.3472,,0,59,59,78,1,Hammers are alive,j,,
,,,,,,,,1372,2022-04-06_19h08.00.411,ImplicitInfinitySC-SLOWTASK,2021.2.3,Win32,29.99670036,,,,space,2.2479,,,,,,,,,,j,1,1.7536,,0,60,60,65,1,Shadows are composed of matter,j,,
,,,,,,,,1372,2022-04-06_19h08.00.411,ImplicitInfinitySC-SLOWTASK,2021.2.3,Win32,29.99670036,,,,space,2.6679,,,,,,,,,,f,1,3.1372,,0,61,61,29,1,Space can go on forever,f,,
,,,,,,,,1372,2022-04-06_19h08.00.411,ImplicitInfinitySC-SLOWTASK,2021.2.3,Win32,29.99670036,,,,space,2.3354,,,,,,,,,,j,1,2.1715,,0,62,62,20,1,Time cannot go on forever,j,,
,,,,,,,,1372,2022-04-06_19h08.00.411,ImplicitInfinitySC-SLOWTASK,2021.2.3,Win32,29.99670036,,,,space,1.0821,,,,,,,,,,f,1,1.589,,0,63,63,88,1,This sentence is written in English,f,,
,,,,,,,,1372,2022-04-06_19h08.00.411,ImplicitInfinitySC-SLOWTASK,2021.2.3,Win32,29.99670036,,,,space,2.0616,,,,,,,,,,j,1,1.4636,,0,64,64,18,1,Time has an end,j,,
,,,,,,,,1372,2022-04-06_19h08.00.411,ImplicitInfinitySC-SLOWTASK,2021.2.3,Win32,29.99670036,,,,space,1.8638,,,,,,,,,,f,1,1.3964,,0,65,65,21,1,Time can go on forever,f,,
,,,,,,,,1372,2022-04-06_19h08.00.411,ImplicitInfinitySC-SLOWTASK,2021.2.3,Win32,29.99670036,,,,space,3.0125,,,,,,,,,,j,1,1.1612,,0,66,66,120,1,A truck is an animal,j,,
,,,,,,,,1372,2022-04-06_19h08.00.411,ImplicitInfinitySC-SLOWTASK,2021.2.3,Win32,29.99670036,,,,space,2.4522,,,,,,,,,,j,1,2.3333,,0,67,67,116,1,Fish cannot swim in the ocean,j,,
,,,,,,,,1372,2022-04-06_19h08.00.411,ImplicitInfinitySC-SLOWTASK,2021.2.3,Win32,29.99670036,,,,space,2.5578,,,,,,,,,,f,1,1.9428,,0,68,68,7,1,A minute can always be further divided,f,,
,,,,,,,,1372,2022-04-06_19h08.00.411,ImplicitInfinitySC-SLOWTASK,2021.2.3,Win32,29.99670036,,,,space,1.6447,,,,,,,,,,j,1,4.9298,,0,69,69,46,1,The number five cannot always be further divided,j,,
,,,,,,,,1372,2022-04-06_19h08.00.411,ImplicitInfinitySC-SLOWTASK,2021.2.3,Win32,29.99670036,,,,space,1.3576,,,,,,,,,,j,1,2.132,,0,70,70,84,1,Silence is composed of matter,j,,
,,,,,,,,1372,2022-04-06_19h08.00.411,ImplicitInfinitySC-SLOWTASK,2021.2.3,Win32,29.99670036,,,,space,1.7514,,,,,,,,,,j,1,2.0234,,0,71,71,43,1,The number five is endless,j,,
,,,,,,,,1372,2022-04-06_19h08.00.411,ImplicitInfinitySC-SLOWTASK,2021.2.3,Win32,29.99670036,,,,space,2.777,,,,,,,,,,f,1,1.5937,,0,72,72,77,1,Saliva has a molecular structure,f,,
,,,,,,,,1372,2022-04-06_19h08.00.411,ImplicitInfinitySC-SLOWTASK,2021.2.3,Win32,29.99670036,,,,space,1.6524,,,,,,,,,,f,1,3.3479,,0,73,73,73,1,Bubbles can be put in a container,f,,
,,,,,,,,1372,2022-04-06_19h08.00.411,ImplicitInfinitySC-SLOWTASK,2021.2.3,Win32,29.99670036,,,,space,2.0015,,,,,,,,,,j,1,1.4796,,0,74,74,83,1,Songs can be put in a container,j,,
,,,,,,,,1372,2022-04-06_19h08.00.411,ImplicitInfinitySC-SLOWTASK,2021.2.3,Win32,29.99670036,,,,space,2.4007,,,,,,,,,,f,1,1.1915,,0,75,75,107,1,A pencil is used to write,f,,
,,,,,,,,1372,2022-04-06_19h08.00.411,ImplicitInfinitySC-SLOWTASK,2021.2.3,Win32,29.99670036,,,,space,1.064,,,,,,,,,,j,1,2.1649,,0,76,76,30,1,Space cannot always be further divided,j,,
,,,,,,,,1372,2022-04-06_19h08.00.411,ImplicitInfinitySC-SLOWTASK,2021.2.3,Win32,29.99670036,,,,space,1.9175,,,,,,,,,,f,1,1.4209,,0,77,77,35,1,Numbers are endless,f,,
,,,,,,,,1372,2022-04-06_19h08.00.411,ImplicitInfinitySC-SLOWTASK,2021.2.3,Win32,29.99670036,,,,space,1.3388,,,,,,,,,,f,1,2.1381,,0,78,78,39,1,Numbers can always be further divided,f,,
,,,,,,,,1372,2022-04-06_19h08.00.411,ImplicitInfinitySC-SLOWTASK,2021.2.3,Win32,29.99670036,,,,space,1.475,,,,,,,,,,f,1,3.1623,,0,79,79,12,1,An inch cannot go on forever,f,,
,,,,,,,,1372,2022-04-06_19h08.00.411,ImplicitInfinitySC-SLOWTASK,2021.2.3,Win32,29.99670036,,,,space,1.0173,,,,,,,,,,j,1,2.2055,,0,80,80,81,1,Tables reproduce,j,,
,,,,,,,,1372,2022-04-06_19h08.00.411,ImplicitInfinitySC-SLOWTASK,2021.2.3,Win32,29.99670036,,,,,,,,,,,,,,,,,,,,,,,,,,,
