SlowInstrKey.keys,SlowInstrKey.rt,SlowInstrLoop.thisRepN,SlowInstrLoop.thisTrialN,SlowInstrLoop.thisN,SlowInstrLoop.thisIndex,SlowInstrLoop.ran,SlowInstructions,participant,date,expName,psychopyVersion,OS,frameRate,key_resp_5.keys,key_resp_5.corr,key_resp_5.rt,key_resp_4.keys,key_resp_4.rt,slowpracticeloop.thisRepN,slowpracticeloop.thisTrialN,slowpracticeloop.thisN,slowpracticeloop.thisIndex,slowpracticeloop.ran,practicetext,practicecorrect,key_resp_3.keys,key_resp_3.rt,SlowKey.keys,SlowKey.corr,SlowKey.rt,encouragekey.keys,SlowLoop.thisRepN,SlowLoop.thisTrialN,SlowLoop.thisN,SlowLoop.thisIndex,SlowLoop.ran,Statement,Correct,encouragekey.rt,endstudykey.keys
space,11.6979,0,0,0,0,1,"You will be shown a total of 80 statements pertaining to mathematics, science, and social concepts. Your task is to determine whether each statement is true or false. Some statements will be difficult and some will be easier.  We do not expect you to know the correct answer for all 80 statements.  Press SPACE to Continue",1711,2022-04-06_19h16.06.384,ImplicitInfinitySC-SLOWTASK,2021.2.3,Win32,59.89817311,,,,,,,,,,,,,,,,,,,,,,,,,,,
space,13.2181,0,1,1,1,1,"We urge you to try your best and take your time. Each statement will appear on your screen and you will have 10 seconds to decide if it is true or false. You will hear a beep at 6 seconds that will prompt you to respond within the next 4 seconds. If you fail to respond within this time, the trial will be counted as incorrect and the next statement will appear. Press SPACE to continue",1711,2022-04-06_19h16.06.384,ImplicitInfinitySC-SLOWTASK,2021.2.3,Win32,59.89817311,,,,,,,,,,,,,,,,,,,,,,,,,,,
space,19.0776,0,2,2,2,1,"If the statement is true, you will press the “F” key on your keyboard with your left pointer finger; if the statement is false, you will press the “J” key on your keyboard with your right pointer finger. Press SPACE to continue",1711,2022-04-06_19h16.06.384,ImplicitInfinitySC-SLOWTASK,2021.2.3,Win32,59.89817311,,,,,,,,,,,,,,,,,,,,,,,,,,,
space,3.3519,0,3,3,3,1,Take your time and go slowly! You have 10 seconds to answer! Press SPACE to continue. ,1711,2022-04-06_19h16.06.384,ImplicitInfinitySC-SLOWTASK,2021.2.3,Win32,59.89817311,,,,,,,,,,,,,,,,,,,,,,,,,,,
,,,,,,,,1711,2022-04-06_19h16.06.384,ImplicitInfinitySC-SLOWTASK,2021.2.3,Win32,59.89817311,j,1,1.6314,space,9.4118,0,0,0,8,1,Mississippi is a country,j,,,,,,,,,,,,,,,
,,,,,,,,1711,2022-04-06_19h16.06.384,ImplicitInfinitySC-SLOWTASK,2021.2.3,Win32,59.89817311,f,1,2.3887,space,1.8049,0,1,1,2,1,Magenta is a color,f,,,,,,,,,,,,,,,
,,,,,,,,1711,2022-04-06_19h16.06.384,ImplicitInfinitySC-SLOWTASK,2021.2.3,Win32,59.89817311,f,1,1.8443,space,1.4492,0,2,2,0,1,A circle is a shape,f,,,,,,,,,,,,,,,
,,,,,,,,1711,2022-04-06_19h16.06.384,ImplicitInfinitySC-SLOWTASK,2021.2.3,Win32,59.89817311,f,1,1.8096,space,1.7396,0,3,3,1,1,Dinosaurs are extinct,f,,,,,,,,,,,,,,,
,,,,,,,,1711,2022-04-06_19h16.06.384,ImplicitInfinitySC-SLOWTASK,2021.2.3,Win32,59.89817311,j,1,2.0479,space,1.3324,0,4,4,9,1,Humans cannot eat food,j,,,,,,,,,,,,,,,
,,,,,,,,1711,2022-04-06_19h16.06.384,ImplicitInfinitySC-SLOWTASK,2021.2.3,Win32,59.89817311,j,1,1.7564,space,1.9991,0,5,5,6,1,Jupiter is the planet we live on,j,,,,,,,,,,,,,,,
,,,,,,,,1711,2022-04-06_19h16.06.384,ImplicitInfinitySC-SLOWTASK,2021.2.3,Win32,59.89817311,j,1,2.2529,space,1.7108,0,6,6,5,1,A truck is an animal,j,,,,,,,,,,,,,,,
,,,,,,,,1711,2022-04-06_19h16.06.384,ImplicitInfinitySC-SLOWTASK,2021.2.3,Win32,59.89817311,f,1,2.1312,space,1.8812,0,7,7,3,1,A clock is used to tell time,f,,,,,,,,,,,,,,,
,,,,,,,,1711,2022-04-06_19h16.06.384,ImplicitInfinitySC-SLOWTASK,2021.2.3,Win32,59.89817311,j,1,2.2694,space,1.8779,0,8,8,7,1,The Earth is a star,j,,,,,,,,,,,,,,,
,,,,,,,,1711,2022-04-06_19h16.06.384,ImplicitInfinitySC-SLOWTASK,2021.2.3,Win32,59.89817311,f,1,3.1739,space,1.4635,0,9,9,4,1,Humans cannot breathe water,f,,,,,,,,,,,,,,,
,,,,,,,,1711,2022-04-06_19h16.06.384,ImplicitInfinitySC-SLOWTASK,2021.2.3,Win32,59.89817311,,,,space,1.3325,,,,,,,,space,9.4985,f,1,2.1091,,0,0,0,75,1,Frost is composed of matter,f,,
,,,,,,,,1711,2022-04-06_19h16.06.384,ImplicitInfinitySC-SLOWTASK,2021.2.3,Win32,59.89817311,,,,space,1.7605,,,,,,,,,,f,1,1.7914,,0,1,1,104,1,The United States has a president,f,,
,,,,,,,,1711,2022-04-06_19h16.06.384,ImplicitInfinitySC-SLOWTASK,2021.2.3,Win32,59.89817311,,,,space,1.5352,,,,,,,,,,j,1,1.3362,,0,2,2,115,1,Yellow is an animal,j,,
,,,,,,,,1711,2022-04-06_19h16.06.384,ImplicitInfinitySC-SLOWTASK,2021.2.3,Win32,59.89817311,,,,space,1.4983,,,,,,,,,,j,1,1.9098,,0,3,3,34,1,Numbers have an end,j,,
,,,,,,,,1711,2022-04-06_19h16.06.384,ImplicitInfinitySC-SLOWTASK,2021.2.3,Win32,59.89817311,,,,space,2.4365,,,,,,,,,,j,1,1.9771,,0,4,4,1,1,A minute is infinite,j,,
,,,,,,,,1711,2022-04-06_19h16.06.384,ImplicitInfinitySC-SLOWTASK,2021.2.3,Win32,59.89817311,,,,space,1.2086,,,,,,,,,,j,1,1.6159,,0,5,5,111,1,A circle is a flavor,j,,
,,,,,,,,1711,2022-04-06_19h16.06.384,ImplicitInfinitySC-SLOWTASK,2021.2.3,Win32,59.89817311,,,,space,1.8132,,,,,,,,,,j,1,1.5957,,0,6,6,81,1,Tables reproduce,j,,
,,,,,,,,1711,2022-04-06_19h16.06.384,ImplicitInfinitySC-SLOWTASK,2021.2.3,Win32,59.89817311,,,,space,1.6632,,,,,,,,,,j,1,1.6337,,0,7,7,61,1,Sailboats reproduce,j,,
,,,,,,,,1711,2022-04-06_19h16.06.384,ImplicitInfinitySC-SLOWTASK,2021.2.3,Win32,59.89817311,,,,space,1.3787,,,,,,,,,,f,0,1.4304,,0,8,8,122,1,The Earth is a star,j,,
,,,,,,,,1711,2022-04-06_19h16.06.384,ImplicitInfinitySC-SLOWTASK,2021.2.3,Win32,59.89817311,,,,space,1.6508,,,,,,,,,,j,1,1.9994,,0,9,9,13,1,An inch can go on forever,j,,
,,,,,,,,1711,2022-04-06_19h16.06.384,ImplicitInfinitySC-SLOWTASK,2021.2.3,Win32,59.89817311,,,,space,1.2112,,,,,,,,,,f,1,1.9484,,0,10,10,70,1,Grass needs nutrients,f,,
,,,,,,,,1711,2022-04-06_19h16.06.384,ImplicitInfinitySC-SLOWTASK,2021.2.3,Win32,59.89817311,,,,space,2.1015,,,,,,,,,,f,1,2.0481,,0,11,11,90,1,A triangle is not an animal,f,,
,,,,,,,,1711,2022-04-06_19h16.06.384,ImplicitInfinitySC-SLOWTASK,2021.2.3,Win32,59.89817311,,,,space,0.9506,,,,,,,,,,j,1,2.5012,,0,12,12,87,1,Dreams have a molecular structure,j,,
,,,,,,,,1711,2022-04-06_19h16.06.384,ImplicitInfinitySC-SLOWTASK,2021.2.3,Win32,59.89817311,,,,space,1.3586,,,,,,,,,,j,1,2.2816,,0,13,13,118,1,A horse is used to tell time,j,,
,,,,,,,,1711,2022-04-06_19h16.06.384,ImplicitInfinitySC-SLOWTASK,2021.2.3,Win32,59.89817311,,,,space,1.0787,,,,,,,,,,f,1,1.216,,0,14,14,98,1,A clock is used to tell time,f,,
,,,,,,,,1711,2022-04-06_19h16.06.384,ImplicitInfinitySC-SLOWTASK,2021.2.3,Win32,59.89817311,,,,space,2.4291,,,,,,,,,,f,1,2.9138,,0,15,15,35,1,Numbers are endless,f,,
,,,,,,,,1711,2022-04-06_19h16.06.384,ImplicitInfinitySC-SLOWTASK,2021.2.3,Win32,59.89817311,,,,space,2.0137,,,,,,,,,,j,1,2.0027,,0,16,16,66,1,Music has a molecular structure,j,,
,,,,,,,,1711,2022-04-06_19h16.06.384,ImplicitInfinitySC-SLOWTASK,2021.2.3,Win32,59.89817311,,,,space,1.272,,,,,,,,,,j,1,1.9093,,0,17,17,117,1,Dolphins cannot swim in the ocean,j,,
,,,,,,,,1711,2022-04-06_19h16.06.384,ImplicitInfinitySC-SLOWTASK,2021.2.3,Win32,59.89817311,,,,space,2.2095,,,,,,,,,,j,1,1.537,,0,18,18,60,1,Robots need nutrients,j,,
,,,,,,,,1711,2022-04-06_19h16.06.384,ImplicitInfinitySC-SLOWTASK,2021.2.3,Win32,59.89817311,,,,space,1.2463,,,,,,,,,,j,0,3.0878,,0,19,19,31,1,Space can always be further divided,f,,
,,,,,,,,1711,2022-04-06_19h16.06.384,ImplicitInfinitySC-SLOWTASK,2021.2.3,Win32,59.89817311,,,,space,2.5539,,,,,,,,,,f,1,2.5772,,0,20,20,101,1,Jupiter is in our solar system,f,,
,,,,,,,,1711,2022-04-06_19h16.06.384,ImplicitInfinitySC-SLOWTASK,2021.2.3,Win32,59.89817311,,,,space,1.7216,,,,,,,,,,f,1,1.8123,,0,21,21,29,1,Space can go on forever,f,,
,,,,,,,,1711,2022-04-06_19h16.06.384,ImplicitInfinitySC-SLOWTASK,2021.2.3,Win32,59.89817311,,,,space,1.2978,,,,,,,,,,j,1,2.4074,,0,22,22,85,1,Thoughts are composed of matter,j,,
,,,,,,,,1711,2022-04-06_19h16.06.384,ImplicitInfinitySC-SLOWTASK,2021.2.3,Win32,59.89817311,,,,space,1.7288,,,,,,,,,,j,1,1.4468,,0,23,23,123,1,Mississippi is a country,j,,
,,,,,,,,1711,2022-04-06_19h16.06.384,ImplicitInfinitySC-SLOWTASK,2021.2.3,Win32,59.89817311,,,,space,3.3617,,,,,,,,,,f,0,1.8249,,0,24,24,32,1,Numbers are finite,j,,
,,,,,,,,1711,2022-04-06_19h16.06.384,ImplicitInfinitySC-SLOWTASK,2021.2.3,Win32,59.89817311,,,,space,2.3736,,,,,,,,,,f,1,1.9432,,0,25,25,25,1,Space is infinite,f,,
,,,,,,,,1711,2022-04-06_19h16.06.384,ImplicitInfinitySC-SLOWTASK,2021.2.3,Win32,59.89817311,,,,space,1.8754,,,,,,,,,,j,0,2.1396,,0,26,26,72,1,Mushrooms reproduce,f,,
,,,,,,,,1711,2022-04-06_19h16.06.384,ImplicitInfinitySC-SLOWTASK,2021.2.3,Win32,59.89817311,,,,space,1.1634,,,,,,,,,,j,1,1.8572,,0,27,27,11,1,An inch is endless,j,,
,,,,,,,,1711,2022-04-06_19h16.06.384,ImplicitInfinitySC-SLOWTASK,2021.2.3,Win32,59.89817311,,,,space,1.7304,,,,,,,,,,f,1,1.8368,,0,28,28,74,1,Foam is composed of matter,f,,
,,,,,,,,1711,2022-04-06_19h16.06.384,ImplicitInfinitySC-SLOWTASK,2021.2.3,Win32,59.89817311,,,,space,1.2374,,,,,,,,,,f,1,1.5505,,0,29,29,37,1,Numbers can go on forever,f,,
,,,,,,,,1711,2022-04-06_19h16.06.384,ImplicitInfinitySC-SLOWTASK,2021.2.3,Win32,59.89817311,,,,space,1.3419,,,,,,,,,,f,1,1.792,,0,30,30,10,1,An inch has an end,f,,
,,,,,,,,1711,2022-04-06_19h16.06.384,ImplicitInfinitySC-SLOWTASK,2021.2.3,Win32,59.89817311,,,,space,1.4914,,,,,,,,,,j,1,2.515,,0,31,31,84,1,Silence is composed of matter,j,,
,,,,,,,,1711,2022-04-06_19h16.06.384,ImplicitInfinitySC-SLOWTASK,2021.2.3,Win32,59.89817311,,,,space,1.1967,,,,,,,,,,j,0,2.8926,,0,32,32,19,1,Time is endless,f,,
,,,,,,,,1711,2022-04-06_19h16.06.384,ImplicitInfinitySC-SLOWTASK,2021.2.3,Win32,59.89817311,,,,space,2.4769,,,,,,,,,,j,1,2.7272,,0,33,33,14,1,An inch cannot always be further divided,j,,
,,,,,,,,1711,2022-04-06_19h16.06.384,ImplicitInfinitySC-SLOWTASK,2021.2.3,Win32,59.89817311,,,,space,1.3696,,,,,,,,,,j,1,1.9555,,0,34,34,58,1,Clocks are alive,j,,
,,,,,,,,1711,2022-04-06_19h16.06.384,ImplicitInfinitySC-SLOWTASK,2021.2.3,Win32,59.89817311,,,,space,0.9067,,,,,,,,,,j,1,1.4385,,0,35,35,110,1,A triangle is an animal,j,,
,,,,,,,,1711,2022-04-06_19h16.06.384,ImplicitInfinitySC-SLOWTASK,2021.2.3,Win32,59.89817311,,,,space,4.1116,,,,,,,,,,f,1,2.9688,,0,36,36,53,1,Bricks can be put in a container,f,,
,,,,,,,,1711,2022-04-06_19h16.06.384,ImplicitInfinitySC-SLOWTASK,2021.2.3,Win32,59.89817311,,,,space,1.0259,,,,,,,,,,f,1,1.7584,,0,37,37,33,1,Numbers are infinite,f,,
,,,,,,,,1711,2022-04-06_19h16.06.384,ImplicitInfinitySC-SLOWTASK,2021.2.3,Win32,59.89817311,,,,space,1.2575,,,,,,,,,,f,1,2.2566,,0,38,38,8,1,An inch is finite,f,,
,,,,,,,,1711,2022-04-06_19h16.06.384,ImplicitInfinitySC-SLOWTASK,2021.2.3,Win32,59.89817311,,,,space,1.1372,,,,,,,,,,j,1,2.319,,0,39,39,125,1,There are ninty states in the United States,j,,
,,,,,,,,1711,2022-04-06_19h16.06.384,ImplicitInfinitySC-SLOWTASK,2021.2.3,Win32,59.89817311,,,,space,3.5096,,,,,,,,,,f,1,1.501,space,0,40,40,50,1,Turtles need nutrients,f,0.3686,
,,,,,,,,1711,2022-04-06_19h16.06.384,ImplicitInfinitySC-SLOWTASK,2021.2.3,Win32,59.89817311,,,,space,1.2223,,,,,,,,,,j,1,1.6937,,0,41,41,3,1,A minute is endless,j,,
,,,,,,,,1711,2022-04-06_19h16.06.384,ImplicitInfinitySC-SLOWTASK,2021.2.3,Win32,59.89817311,,,,space,1.1232,,,,,,,,,,f,1,1.5007,,0,42,42,105,1,There are fifty states in the United States,f,,
,,,,,,,,1711,2022-04-06_19h16.06.384,ImplicitInfinitySC-SLOWTASK,2021.2.3,Win32,59.89817311,,,,space,0.8041,,,,,,,,,,f,1,1.7931,,0,43,43,0,1,A minute is finite,f,,
,,,,,,,,1711,2022-04-06_19h16.06.384,ImplicitInfinitySC-SLOWTASK,2021.2.3,Win32,59.89817311,,,,space,0.8457,,,,,,,,,,j,1,1.5675,,0,44,44,24,1,Space is finite,j,,
,,,,,,,,1711,2022-04-06_19h16.06.384,ImplicitInfinitySC-SLOWTASK,2021.2.3,Win32,59.89817311,,,,space,1.0131,,,,,,,,,,f,1,1.7349,,0,45,45,88,1,This sentence is written in English,f,,
,,,,,,,,1711,2022-04-06_19h16.06.384,ImplicitInfinitySC-SLOWTASK,2021.2.3,Win32,59.89817311,,,,space,1.1584,,,,,,,,,,j,1,1.193,,0,46,46,120,1,A truck is an animal,j,,
,,,,,,,,1711,2022-04-06_19h16.06.384,ImplicitInfinitySC-SLOWTASK,2021.2.3,Win32,59.89817311,,,,space,1.188,,,,,,,,,,j,1,1.9662,,0,47,47,80,1,Mittens need nutrients,j,,
,,,,,,,,1711,2022-04-06_19h16.06.384,ImplicitInfinitySC-SLOWTASK,2021.2.3,Win32,59.89817311,,,,space,1.0939,,,,,,,,,,f,1,1.465,,0,48,48,107,1,A pencil is used to write,f,,
,,,,,,,,1711,2022-04-06_19h16.06.384,ImplicitInfinitySC-SLOWTASK,2021.2.3,Win32,59.89817311,,,,space,0.9053,,,,,,,,,,j,1,1.8485,,0,49,49,116,1,Fish cannot swim in the ocean,j,,
,,,,,,,,1711,2022-04-06_19h16.06.384,ImplicitInfinitySC-SLOWTASK,2021.2.3,Win32,59.89817311,,,,space,2.232,,,,,,,,,,f,1,1.9413,,0,50,50,54,1,Dumbells are composed of matter,f,,
,,,,,,,,1711,2022-04-06_19h16.06.384,ImplicitInfinitySC-SLOWTASK,2021.2.3,Win32,59.89817311,,,,space,1.2364,,,,,,,,,,j,1,2.6009,,0,51,51,41,1,The number five is infinite,j,,
,,,,,,,,1711,2022-04-06_19h16.06.384,ImplicitInfinitySC-SLOWTASK,2021.2.3,Win32,59.89817311,,,,space,1.1816,,,,,,,,,,f,1,3.3138,,0,52,52,47,1,The number five can always be further divided,f,,
,,,,,,,,1711,2022-04-06_19h16.06.384,ImplicitInfinitySC-SLOWTASK,2021.2.3,Win32,59.89817311,,,,space,0.7514,,,,,,,,,,j,1,1.7898,,0,53,53,28,1,Space cannot go on forever,j,,
,,,,,,,,1711,2022-04-06_19h16.06.384,ImplicitInfinitySC-SLOWTASK,2021.2.3,Win32,59.89817311,,,,space,1.1859,,,,,,,,,,f,1,1.5616,,0,54,54,2,1,A minute has an end,f,,
,,,,,,,,1711,2022-04-06_19h16.06.384,ImplicitInfinitySC-SLOWTASK,2021.2.3,Win32,59.89817311,,,,space,1.0337,,,,,,,,,,j,1,2.2073,,0,55,55,9,1,An inch is infinite,j,,
,,,,,,,,1711,2022-04-06_19h16.06.384,ImplicitInfinitySC-SLOWTASK,2021.2.3,Win32,59.89817311,,,,space,0.8267,,,,,,,,,,f,1,1.7539,,0,56,56,15,1,An inch can be always further divided,f,,
,,,,,,,,1711,2022-04-06_19h16.06.384,ImplicitInfinitySC-SLOWTASK,2021.2.3,Win32,59.89817311,,,,space,0.7779,,,,,,,,,,f,1,2.1991,,0,57,57,57,1,Rocks have a molecular structure,f,,
,,,,,,,,1711,2022-04-06_19h16.06.384,ImplicitInfinitySC-SLOWTASK,2021.2.3,Win32,59.89817311,,,,space,0.9122,,,,,,,,,,f,1,1.6467,,0,58,58,51,1,Tigers reproduce,f,,
,,,,,,,,1711,2022-04-06_19h16.06.384,ImplicitInfinitySC-SLOWTASK,2021.2.3,Win32,59.89817311,,,,space,0.8318,,,,,,,,,,f,1,1.4642,,0,59,59,91,1,A circle is a shape,f,,
,,,,,,,,1711,2022-04-06_19h16.06.384,ImplicitInfinitySC-SLOWTASK,2021.2.3,Win32,59.89817311,,,,space,1.2265,,,,,,,,,,f,0,4.0675,,0,60,60,38,1,Numbers cannot always be further divided,j,,
,,,,,,,,1711,2022-04-06_19h16.06.384,ImplicitInfinitySC-SLOWTASK,2021.2.3,Win32,59.89817311,,,,space,1.0865,,,,,,,,,,f,1,1.7428,,0,61,61,42,1,The number five has an end,f,,
,,,,,,,,1711,2022-04-06_19h16.06.384,ImplicitInfinitySC-SLOWTASK,2021.2.3,Win32,59.89817311,,,,space,0.8203,,,,,,,,,,f,1,1.4474,,0,62,62,100,1,A truck is a vehicle,f,,
,,,,,,,,1711,2022-04-06_19h16.06.384,ImplicitInfinitySC-SLOWTASK,2021.2.3,Win32,59.89817311,,,,space,0.8292,,,,,,,,,,j,1,1.778,,0,63,63,126,1,Humans can breathe water,j,,
,,,,,,,,1711,2022-04-06_19h16.06.384,ImplicitInfinitySC-SLOWTASK,2021.2.3,Win32,59.89817311,,,,space,0.7543,,,,,,,,,,j,1,2.1033,,0,64,64,45,1,The number five can go on forever,j,,
,,,,,,,,1711,2022-04-06_19h16.06.384,ImplicitInfinitySC-SLOWTASK,2021.2.3,Win32,59.89817311,,,,space,0.9428,,,,,,,,,,f,1,2.1211,,0,65,65,56,1,Diamonds have a molecular structure,f,,
,,,,,,,,1711,2022-04-06_19h16.06.384,ImplicitInfinitySC-SLOWTASK,2021.2.3,Win32,59.89817311,,,,space,0.8185,,,,,,,,,,j,1,1.7263,,0,66,66,112,1,Dinosaurs are not extinct,j,,
,,,,,,,,1711,2022-04-06_19h16.06.384,ImplicitInfinitySC-SLOWTASK,2021.2.3,Win32,59.89817311,,,,space,1.3729,,,,,,,,,,f,1,2.4577,,0,67,67,73,1,Bubbles can be put in a container,f,,
,,,,,,,,1711,2022-04-06_19h16.06.384,ImplicitInfinitySC-SLOWTASK,2021.2.3,Win32,59.89817311,,,,space,0.8337,,,,,,,,,,f,1,1.6558,,0,68,68,94,1,Orange is a color,f,,
,,,,,,,,1711,2022-04-06_19h16.06.384,ImplicitInfinitySC-SLOWTASK,2021.2.3,Win32,59.89817311,,,,space,0.8184,,,,,,,,,,f,1,1.9282,,0,69,69,55,1,Concrete is composed of matter,f,,
,,,,,,,,1711,2022-04-06_19h16.06.384,ImplicitInfinitySC-SLOWTASK,2021.2.3,Win32,59.89817311,,,,space,0.8858,,,,,,,,,,j,0,2.005,,0,70,70,23,1,Time can always be further divided,f,,
,,,,,,,,1711,2022-04-06_19h16.06.384,ImplicitInfinitySC-SLOWTASK,2021.2.3,Win32,59.89817311,,,,space,0.8759,,,,,,,,,,j,1,1.8588,,0,71,71,5,1,A minute can go on forever,j,,
,,,,,,,,1711,2022-04-06_19h16.06.384,ImplicitInfinitySC-SLOWTASK,2021.2.3,Win32,59.89817311,,,,space,1.2225,,,,,,,,,,f,1,2.1949,,0,72,72,77,1,Saliva has a molecular structure,f,,
,,,,,,,,1711,2022-04-06_19h16.06.384,ImplicitInfinitySC-SLOWTASK,2021.2.3,Win32,59.89817311,,,,space,0.9391,,,,,,,,,,j,1,2.8514,,0,73,73,20,1,Time cannot go on forever,j,,
,,,,,,,,1711,2022-04-06_19h16.06.384,ImplicitInfinitySC-SLOWTASK,2021.2.3,Win32,59.89817311,,,,space,0.9004,,,,,,,,,,j,1,2.334,,0,74,74,124,1,The president of the United States is Oprah,j,,
,,,,,,,,1711,2022-04-06_19h16.06.384,ImplicitInfinitySC-SLOWTASK,2021.2.3,Win32,59.89817311,,,,space,0.8334,,,,,,,,,,j,1,1.8957,,0,75,75,113,1,Magenta is a shape,j,,
,,,,,,,,1711,2022-04-06_19h16.06.384,ImplicitInfinitySC-SLOWTASK,2021.2.3,Win32,59.89817311,,,,space,1.0953,,,,,,,,,,f,1,1.8236,,0,76,76,12,1,An inch cannot go on forever,f,,
,,,,,,,,1711,2022-04-06_19h16.06.384,ImplicitInfinitySC-SLOWTASK,2021.2.3,Win32,59.89817311,,,,space,1.5467,,,,,,,,,,j,1,5.677,,0,77,77,6,1,A minute cannot always be further divided,j,,
,,,,,,,,1711,2022-04-06_19h16.06.384,ImplicitInfinitySC-SLOWTASK,2021.2.3,Win32,59.89817311,,,,space,0.9054,,,,,,,,,,j,1,1.4376,,0,78,78,79,1,Forks are alive,j,,
,,,,,,,,1711,2022-04-06_19h16.06.384,ImplicitInfinitySC-SLOWTASK,2021.2.3,Win32,59.89817311,,,,space,0.9592,,,,,,,,,,j,1,2.7439,,0,79,79,46,1,The number five cannot always be further divided,j,,
,,,,,,,,1711,2022-04-06_19h16.06.384,ImplicitInfinitySC-SLOWTASK,2021.2.3,Win32,59.89817311,,,,space,0.951,,,,,,,,,,f,1,1.4071,,0,80,80,102,1,The Earth is a planet,f,,
,,,,,,,,1711,2022-04-06_19h16.06.384,ImplicitInfinitySC-SLOWTASK,2021.2.3,Win32,59.89817311,,,,,,,,,,,,,,,,,,,,,,,,,,,
