SlowInstrKey.keys,SlowInstrKey.rt,SlowInstrLoop.thisRepN,SlowInstrLoop.thisTrialN,SlowInstrLoop.thisN,SlowInstrLoop.thisIndex,SlowInstrLoop.ran,SlowInstructions,participant,date,expName,psychopyVersion,OS,frameRate,key_resp_5.keys,key_resp_5.corr,key_resp_5.rt,key_resp_4.keys,key_resp_4.rt,slowpracticeloop.thisRepN,slowpracticeloop.thisTrialN,slowpracticeloop.thisN,slowpracticeloop.thisIndex,slowpracticeloop.ran,practicetext,practicecorrect,key_resp_3.keys,key_resp_3.rt,SlowKey.keys,SlowKey.corr,SlowKey.rt,encouragekey.keys,SlowLoop.thisRepN,SlowLoop.thisTrialN,SlowLoop.thisN,SlowLoop.thisIndex,SlowLoop.ran,Statement,Correct,encouragekey.rt,endstudykey.keys,endstudykey.rt
space,3.4455,0,0,0,0,1,"You will be shown a total of 80 statements pertaining to mathematics, science, and social concepts. Your task is to determine whether each statement is true or false. Some statements will be difficult and some will be easier.  We do not expect you to know the correct answer for all 80 statements.  Press SPACE to Continue",2117,2022-04-06_16h02.41.496,ImplicitInfinitySC-SLOWTASK,2021.2.3,Win32,59.85515054,,,,,,,,,,,,,,,,,,,,,,,,,,,,
space,1.2456,0,1,1,1,1,"We urge you to try your best and take your time. Each statement will appear on your screen and you will have 10 seconds to decide if it is true or false. You will hear a beep at 6 seconds that will prompt you to respond within the next 4 seconds. If you fail to respond within this time, the trial will be counted as incorrect and the next statement will appear. Press SPACE to continue",2117,2022-04-06_16h02.41.496,ImplicitInfinitySC-SLOWTASK,2021.2.3,Win32,59.85515054,,,,,,,,,,,,,,,,,,,,,,,,,,,,
space,0.5105,0,2,2,2,1,"If the statement is true, you will press the “F” key on your keyboard with your left pointer finger; if the statement is false, you will press the “J” key on your keyboard with your right pointer finger. Press SPACE to continue",2117,2022-04-06_16h02.41.496,ImplicitInfinitySC-SLOWTASK,2021.2.3,Win32,59.85515054,,,,,,,,,,,,,,,,,,,,,,,,,,,,
space,0.5605,0,3,3,3,1,Take your time and go slowly! You have 10 seconds to answer! Press SPACE to continue. ,2117,2022-04-06_16h02.41.496,ImplicitInfinitySC-SLOWTASK,2021.2.3,Win32,59.85515054,,,,,,,,,,,,,,,,,,,,,,,,,,,,
,,,,,,,,2117,2022-04-06_16h02.41.496,ImplicitInfinitySC-SLOWTASK,2021.2.3,Win32,59.85515054,f,0,1.8957,space,0.9908,0,0,0,8,1,Mississippi is a country,j,,,,,,,,,,,,,,,,
,,,,,,,,2117,2022-04-06_16h02.41.496,ImplicitInfinitySC-SLOWTASK,2021.2.3,Win32,59.85515054,j,0,0.8297,space,0.802,0,1,1,1,1,Dinosaurs are extinct,f,,,,,,,,,,,,,,,,
,,,,,,,,2117,2022-04-06_16h02.41.496,ImplicitInfinitySC-SLOWTASK,2021.2.3,Win32,59.85515054,f,1,0.9409,space,0.2264,0,2,2,0,1,A circle is a shape,f,,,,,,,,,,,,,,,,
,,,,,,,,2117,2022-04-06_16h02.41.496,ImplicitInfinitySC-SLOWTASK,2021.2.3,Win32,59.85515054,f,1,0.9201,space,0.1733,0,3,3,3,1,A clock is used to tell time,f,,,,,,,,,,,,,,,,
,,,,,,,,2117,2022-04-06_16h02.41.496,ImplicitInfinitySC-SLOWTASK,2021.2.3,Win32,59.85515054,j,1,1.1875,space,0.1663,0,4,4,7,1,The Earth is a star,j,,,,,,,,,,,,,,,,
,,,,,,,,2117,2022-04-06_16h02.41.496,ImplicitInfinitySC-SLOWTASK,2021.2.3,Win32,59.85515054,j,1,1.2163,space,0.2046,0,5,5,6,1,Jupiter is the planet we live on,j,,,,,,,,,,,,,,,,
,,,,,,,,2117,2022-04-06_16h02.41.496,ImplicitInfinitySC-SLOWTASK,2021.2.3,Win32,59.85515054,j,0,0.9674,space,0.8891,0,6,6,4,1,Humans cannot breathe water,f,,,,,,,,,,,,,,,,
,,,,,,,,2117,2022-04-06_16h02.41.496,ImplicitInfinitySC-SLOWTASK,2021.2.3,Win32,59.85515054,j,1,1.8607,space,0.3535,0,7,7,9,1,Humans cannot eat food,j,,,,,,,,,,,,,,,,
,,,,,,,,2117,2022-04-06_16h02.41.496,ImplicitInfinitySC-SLOWTASK,2021.2.3,Win32,59.85515054,f,1,0.8749,space,0.2019,0,8,8,2,1,Magenta is a color,f,,,,,,,,,,,,,,,,
,,,,,,,,2117,2022-04-06_16h02.41.496,ImplicitInfinitySC-SLOWTASK,2021.2.3,Win32,59.85515054,j,1,2.0184,space,0.3014,0,9,9,5,1,A truck is an animal,j,,,,,,,,,,,,,,,,
,,,,,,,,2117,2022-04-06_16h02.41.496,ImplicitInfinitySC-SLOWTASK,2021.2.3,Win32,59.85515054,,,,space,0.2504,,,,,,,,space,1.0142,j,1,1.3695,,0,0,0,84,1,Silence is composed of matter,j,,,
,,,,,,,,2117,2022-04-06_16h02.41.496,ImplicitInfinitySC-SLOWTASK,2021.2.3,Win32,59.85515054,,,,space,0.1883,,,,,,,,,,f,1,0.717,,0,1,1,94,1,Orange is a color,f,,,
,,,,,,,,2117,2022-04-06_16h02.41.496,ImplicitInfinitySC-SLOWTASK,2021.2.3,Win32,59.85515054,,,,space,0.2173,,,,,,,,,,j,1,0.8328,,0,2,2,59,1,Comets are alive,j,,,
,,,,,,,,2117,2022-04-06_16h02.41.496,ImplicitInfinitySC-SLOWTASK,2021.2.3,Win32,59.85515054,,,,space,0.2372,,,,,,,,,,j,1,1.2507,,0,3,3,81,1,Tables reproduce,j,,,
,,,,,,,,2117,2022-04-06_16h02.41.496,ImplicitInfinitySC-SLOWTASK,2021.2.3,Win32,59.85515054,,,,space,0.1705,,,,,,,,,,f,1,0.7736,,0,4,4,100,1,A truck is a vehicle,f,,,
,,,,,,,,2117,2022-04-06_16h02.41.496,ImplicitInfinitySC-SLOWTASK,2021.2.3,Win32,59.85515054,,,,space,0.1708,,,,,,,,,,f,1,1.0247,,0,5,5,97,1,Dolphins can swim in the ocean,f,,,
,,,,,,,,2117,2022-04-06_16h02.41.496,ImplicitInfinitySC-SLOWTASK,2021.2.3,Win32,59.85515054,,,,space,0.2017,,,,,,,,,,j,1,0.9057,,0,6,6,3,1,A minute is endless,j,,,
,,,,,,,,2117,2022-04-06_16h02.41.496,ImplicitInfinitySC-SLOWTASK,2021.2.3,Win32,59.85515054,,,,space,0.1849,,,,,,,,,,j,1,0.8806,,0,7,7,9,1,An inch is infinite,j,,,
,,,,,,,,2117,2022-04-06_16h02.41.496,ImplicitInfinitySC-SLOWTASK,2021.2.3,Win32,59.85515054,,,,space,0.227,,,,,,,,,,j,1,1.7568,,0,8,8,18,1,Time has an end,j,,,
,,,,,,,,2117,2022-04-06_16h02.41.496,ImplicitInfinitySC-SLOWTASK,2021.2.3,Win32,59.85515054,,,,space,0.1547,,,,,,,,,,j,1,0.8537,,0,9,9,119,1,A motorcycle is a person,j,,,
,,,,,,,,2117,2022-04-06_16h02.41.496,ImplicitInfinitySC-SLOWTASK,2021.2.3,Win32,59.85515054,,,,space,0.1668,,,,,,,,,,f,1,1.4488,,0,10,10,54,1,Dumbells are composed of matter,f,,,
,,,,,,,,2117,2022-04-06_16h02.41.496,ImplicitInfinitySC-SLOWTASK,2021.2.3,Win32,59.85515054,,,,space,0.2224,,,,,,,,,,j,1,1.1497,,0,11,11,116,1,Fish cannot swim in the ocean,j,,,
,,,,,,,,2117,2022-04-06_16h02.41.496,ImplicitInfinitySC-SLOWTASK,2021.2.3,Win32,59.85515054,,,,space,0.3411,,,,,,,,,,j,1,0.8896,,0,12,12,16,1,Time is finite,j,,,
,,,,,,,,2117,2022-04-06_16h02.41.496,ImplicitInfinitySC-SLOWTASK,2021.2.3,Win32,59.85515054,,,,space,0.1553,,,,,,,,,,j,0,0.8195,,0,13,13,0,1,A minute is finite,f,,,
,,,,,,,,2117,2022-04-06_16h02.41.496,ImplicitInfinitySC-SLOWTASK,2021.2.3,Win32,59.85515054,,,,space,0.2044,,,,,,,,,,j,1,1.5742,,0,14,14,30,1,Space cannot always be further divided,j,,,
,,,,,,,,2117,2022-04-06_16h02.41.496,ImplicitInfinitySC-SLOWTASK,2021.2.3,Win32,59.85515054,,,,space,0.2239,,,,,,,,,,j,1,0.9143,,0,15,15,110,1,A triangle is an animal,j,,,
,,,,,,,,2117,2022-04-06_16h02.41.496,ImplicitInfinitySC-SLOWTASK,2021.2.3,Win32,59.85515054,,,,space,0.168,,,,,,,,,,j,1,1.0006,,0,16,16,61,1,Sailboats reproduce,j,,,
,,,,,,,,2117,2022-04-06_16h02.41.496,ImplicitInfinitySC-SLOWTASK,2021.2.3,Win32,59.85515054,,,,space,0.1558,,,,,,,,,,j,1,1.0029,,0,17,17,118,1,A horse is used to tell time,j,,,
,,,,,,,,2117,2022-04-06_16h02.41.496,ImplicitInfinitySC-SLOWTASK,2021.2.3,Win32,59.85515054,,,,space,0.1441,,,,,,,,,,j,1,0.8321,,0,18,18,26,1,Space has an end,j,,,
,,,,,,,,2117,2022-04-06_16h02.41.496,ImplicitInfinitySC-SLOWTASK,2021.2.3,Win32,59.85515054,,,,space,0.1583,,,,,,,,,,j,1,1.0991,,0,19,19,108,1,This sentence is written in Spanish,j,,,
,,,,,,,,2117,2022-04-06_16h02.41.496,ImplicitInfinitySC-SLOWTASK,2021.2.3,Win32,59.85515054,,,,space,0.1561,,,,,,,,,,f,1,1.2782,,0,20,20,77,1,Saliva has a molecular structure,f,,,
,,,,,,,,2117,2022-04-06_16h02.41.496,ImplicitInfinitySC-SLOWTASK,2021.2.3,Win32,59.85515054,,,,space,0.1859,,,,,,,,,,f,1,1.0069,,0,21,21,105,1,There are fifty states in the United States,f,,,
,,,,,,,,2117,2022-04-06_16h02.41.496,ImplicitInfinitySC-SLOWTASK,2021.2.3,Win32,59.85515054,,,,space,0.1716,,,,,,,,,,f,1,1.2694,,0,22,22,50,1,Turtles need nutrients,f,,,
,,,,,,,,2117,2022-04-06_16h02.41.496,ImplicitInfinitySC-SLOWTASK,2021.2.3,Win32,59.85515054,,,,space,0.1883,,,,,,,,,,j,1,1.3542,,0,23,23,45,1,The number five can go on forever,j,,,
,,,,,,,,2117,2022-04-06_16h02.41.496,ImplicitInfinitySC-SLOWTASK,2021.2.3,Win32,59.85515054,,,,space,0.2675,,,,,,,,,,j,0,1.1378,,0,24,24,15,1,An inch can be always further divided,f,,,
,,,,,,,,2117,2022-04-06_16h02.41.496,ImplicitInfinitySC-SLOWTASK,2021.2.3,Win32,59.85515054,,,,space,0.7007,,,,,,,,,,f,0,0.9344,,0,25,25,60,1,Robots need nutrients,j,,,
,,,,,,,,2117,2022-04-06_16h02.41.496,ImplicitInfinitySC-SLOWTASK,2021.2.3,Win32,59.85515054,,,,space,0.1372,,,,,,,,,,j,1,0.8977,,0,26,26,28,1,Space cannot go on forever,j,,,
,,,,,,,,2117,2022-04-06_16h02.41.496,ImplicitInfinitySC-SLOWTASK,2021.2.3,Win32,59.85515054,,,,space,0.1199,,,,,,,,,,f,1,0.9665,,0,27,27,75,1,Frost is composed of matter,f,,,
,,,,,,,,2117,2022-04-06_16h02.41.496,ImplicitInfinitySC-SLOWTASK,2021.2.3,Win32,59.85515054,,,,space,0.1236,,,,,,,,,,f,1,0.7904,,0,28,28,89,1,A square is a shape,f,,,
,,,,,,,,2117,2022-04-06_16h02.41.496,ImplicitInfinitySC-SLOWTASK,2021.2.3,Win32,59.85515054,,,,space,0.1569,,,,,,,,,,j,1,0.8332,,0,29,29,13,1,An inch can go on forever,j,,,
,,,,,,,,2117,2022-04-06_16h02.41.496,ImplicitInfinitySC-SLOWTASK,2021.2.3,Win32,59.85515054,,,,space,0.4534,,,,,,,,,,f,1,2.2997,,0,30,30,40,1,The number five is finite,f,,,
,,,,,,,,2117,2022-04-06_16h02.41.496,ImplicitInfinitySC-SLOWTASK,2021.2.3,Win32,59.85515054,,,,space,0.1848,,,,,,,,,,f,1,0.9858,,0,31,31,51,1,Tigers reproduce,f,,,
,,,,,,,,2117,2022-04-06_16h02.41.496,ImplicitInfinitySC-SLOWTASK,2021.2.3,Win32,59.85515054,,,,space,0.1696,,,,,,,,,,f,0,1.5775,,0,32,32,64,1,Echoes are composed of matter,j,,,
,,,,,,,,2117,2022-04-06_16h02.41.496,ImplicitInfinitySC-SLOWTASK,2021.2.3,Win32,59.85515054,,,,space,0.2056,,,,,,,,,,f,1,0.9667,,0,33,33,88,1,This sentence is written in English,f,,,
,,,,,,,,2117,2022-04-06_16h02.41.496,ImplicitInfinitySC-SLOWTASK,2021.2.3,Win32,59.85515054,,,,space,0.6207,,,,,,,,,,j,1,1.5666,,0,34,34,112,1,Dinosaurs are not extinct,j,,,
,,,,,,,,2117,2022-04-06_16h02.41.496,ImplicitInfinitySC-SLOWTASK,2021.2.3,Win32,59.85515054,,,,space,0.3592,,,,,,,,,,f,1,1.4823,,0,35,35,70,1,Grass needs nutrients,f,,,
,,,,,,,,2117,2022-04-06_16h02.41.496,ImplicitInfinitySC-SLOWTASK,2021.2.3,Win32,59.85515054,,,,space,0.373,,,,,,,,,,f,1,0.6776,,0,36,36,91,1,A circle is a shape,f,,,
,,,,,,,,2117,2022-04-06_16h02.41.496,ImplicitInfinitySC-SLOWTASK,2021.2.3,Win32,59.85515054,,,,space,0.2758,,,,,,,,,,j,0,0.7887,,0,37,37,2,1,A minute has an end,f,,,
,,,,,,,,2117,2022-04-06_16h02.41.496,ImplicitInfinitySC-SLOWTASK,2021.2.3,Win32,59.85515054,,,,space,0.2081,,,,,,,,,,f,1,1.2405,,0,38,38,76,1,Pollen has a molecular structure,f,,,
,,,,,,,,2117,2022-04-06_16h02.41.496,ImplicitInfinitySC-SLOWTASK,2021.2.3,Win32,59.85515054,,,,space,0.2235,,,,,,,,,,j,1,1.8518,,0,39,39,43,1,The number five is endless,j,,,
,,,,,,,,2117,2022-04-06_16h02.41.496,ImplicitInfinitySC-SLOWTASK,2021.2.3,Win32,59.85515054,,,,space,0.5184,,,,,,,,,,j,0,0.7541,space,0,40,40,8,1,An inch is finite,f,0.2349,,
,,,,,,,,2117,2022-04-06_16h02.41.496,ImplicitInfinitySC-SLOWTASK,2021.2.3,Win32,59.85515054,,,,space,0.2213,,,,,,,,,,j,1,0.8943,,0,41,41,78,1,Hammers are alive,j,,,
,,,,,,,,2117,2022-04-06_16h02.41.496,ImplicitInfinitySC-SLOWTASK,2021.2.3,Win32,59.85515054,,,,space,0.1927,,,,,,,,,,j,1,0.9504,,0,42,42,117,1,Dolphins cannot swim in the ocean,j,,,
,,,,,,,,2117,2022-04-06_16h02.41.496,ImplicitInfinitySC-SLOWTASK,2021.2.3,Win32,59.85515054,,,,space,0.1768,,,,,,,,,,j,1,0.7462,,0,43,43,125,1,There are ninty states in the United States,j,,,
,,,,,,,,2117,2022-04-06_16h02.41.496,ImplicitInfinitySC-SLOWTASK,2021.2.3,Win32,59.85515054,,,,space,0.3061,,,,,,,,,,f,1,0.7749,,0,44,44,98,1,A clock is used to tell time,f,,,
,,,,,,,,2117,2022-04-06_16h02.41.496,ImplicitInfinitySC-SLOWTASK,2021.2.3,Win32,59.85515054,,,,space,0.1493,,,,,,,,,,f,1,0.6503,,0,45,45,96,1,Fish can swim in the ocean,f,,,
,,,,,,,,2117,2022-04-06_16h02.41.496,ImplicitInfinitySC-SLOWTASK,2021.2.3,Win32,59.85515054,,,,space,0.1519,,,,,,,,,,j,0,0.6888,,0,46,46,90,1,A triangle is not an animal,f,,,
,,,,,,,,2117,2022-04-06_16h02.41.496,ImplicitInfinitySC-SLOWTASK,2021.2.3,Win32,59.85515054,,,,space,0.1199,,,,,,,,,,f,1,0.632,,0,47,47,68,1,Algae is alive,f,,,
,,,,,,,,2117,2022-04-06_16h02.41.496,ImplicitInfinitySC-SLOWTASK,2021.2.3,Win32,59.85515054,,,,space,0.1508,,,,,,,,,,f,1,1.1678,,0,48,48,74,1,Foam is composed of matter,f,,,
,,,,,,,,2117,2022-04-06_16h02.41.496,ImplicitInfinitySC-SLOWTASK,2021.2.3,Win32,59.85515054,,,,space,0.1372,,,,,,,,,,j,1,0.763,,0,49,49,62,1,Helicopters reproduce,j,,,
,,,,,,,,2117,2022-04-06_16h02.41.496,ImplicitInfinitySC-SLOWTASK,2021.2.3,Win32,59.85515054,,,,space,0.1969,,,,,,,,,,j,1,1.3851,,0,50,50,83,1,Songs can be put in a container,j,,,
,,,,,,,,2117,2022-04-06_16h02.41.496,ImplicitInfinitySC-SLOWTASK,2021.2.3,Win32,59.85515054,,,,space,0.1792,,,,,,,,,,j,1,0.6674,,0,51,51,79,1,Forks are alive,j,,,
,,,,,,,,2117,2022-04-06_16h02.41.496,ImplicitInfinitySC-SLOWTASK,2021.2.3,Win32,59.85515054,,,,space,0.1945,,,,,,,,,,f,1,1.015,,0,52,52,21,1,Time can go on forever,f,,,
,,,,,,,,2117,2022-04-06_16h02.41.496,ImplicitInfinitySC-SLOWTASK,2021.2.3,Win32,59.85515054,,,,space,0.3834,,,,,,,,,,f,1,2.0776,,0,53,53,4,1,A minute cannot go on forever,f,,,
,,,,,,,,2117,2022-04-06_16h02.41.496,ImplicitInfinitySC-SLOWTASK,2021.2.3,Win32,59.85515054,,,,space,0.2011,,,,,,,,,,f,1,2.3147,,0,54,54,73,1,Bubbles can be put in a container,f,,,
,,,,,,,,2117,2022-04-06_16h02.41.496,ImplicitInfinitySC-SLOWTASK,2021.2.3,Win32,59.85515054,,,,space,0.4096,,,,,,,,,,j,1,1.9616,,0,55,55,36,1,Numbers cannot go on forever,j,,,
,,,,,,,,2117,2022-04-06_16h02.41.496,ImplicitInfinitySC-SLOWTASK,2021.2.3,Win32,59.85515054,,,,space,0.2347,,,,,,,,,,j,0,1.1375,,0,56,56,25,1,Space is infinite,f,,,
,,,,,,,,2117,2022-04-06_16h02.41.496,ImplicitInfinitySC-SLOWTASK,2021.2.3,Win32,59.85515054,,,,space,0.8325,,,,,,,,,,j,1,1.201,,0,57,57,38,1,Numbers cannot always be further divided,j,,,
,,,,,,,,2117,2022-04-06_16h02.41.496,ImplicitInfinitySC-SLOWTASK,2021.2.3,Win32,59.85515054,,,,space,0.2816,,,,,,,,,,j,1,1.1908,,0,58,58,58,1,Clocks are alive,j,,,
,,,,,,,,2117,2022-04-06_16h02.41.496,ImplicitInfinitySC-SLOWTASK,2021.2.3,Win32,59.85515054,,,,space,0.2321,,,,,,,,,,f,1,1.0757,,0,59,59,23,1,Time can always be further divided,f,,,
,,,,,,,,2117,2022-04-06_16h02.41.496,ImplicitInfinitySC-SLOWTASK,2021.2.3,Win32,59.85515054,,,,space,0.1671,,,,,,,,,,j,1,0.7696,,0,60,60,111,1,A circle is a flavor,j,,,
,,,,,,,,2117,2022-04-06_16h02.41.496,ImplicitInfinitySC-SLOWTASK,2021.2.3,Win32,59.85515054,,,,space,0.3718,,,,,,,,,,f,1,1.0345,,0,61,61,107,1,A pencil is used to write,f,,,
,,,,,,,,2117,2022-04-06_16h02.41.496,ImplicitInfinitySC-SLOWTASK,2021.2.3,Win32,59.85515054,,,,space,0.1591,,,,,,,,,,j,1,1.0567,,0,62,62,41,1,The number five is infinite,j,,,
,,,,,,,,2117,2022-04-06_16h02.41.496,ImplicitInfinitySC-SLOWTASK,2021.2.3,Win32,59.85515054,,,,space,0.2835,,,,,,,,,,j,1,1.4337,,0,63,63,63,1,Color can be put in a container,j,,,
,,,,,,,,2117,2022-04-06_16h02.41.496,ImplicitInfinitySC-SLOWTASK,2021.2.3,Win32,59.85515054,,,,space,0.1694,,,,,,,,,,j,1,1.1016,,0,64,64,32,1,Numbers are finite,j,,,
,,,,,,,,2117,2022-04-06_16h02.41.496,ImplicitInfinitySC-SLOWTASK,2021.2.3,Win32,59.85515054,,,,space,0.2185,,,,,,,,,,j,1,0.7912,,0,65,65,5,1,A minute can go on forever,j,,,
,,,,,,,,2117,2022-04-06_16h02.41.496,ImplicitInfinitySC-SLOWTASK,2021.2.3,Win32,59.85515054,,,,space,0.1909,,,,,,,,,,f,1,1.2017,,0,66,66,29,1,Space can go on forever,f,,,
,,,,,,,,2117,2022-04-06_16h02.41.496,ImplicitInfinitySC-SLOWTASK,2021.2.3,Win32,59.85515054,,,,space,0.2198,,,,,,,,,,f,1,0.7524,,0,67,67,101,1,Jupiter is in our solar system,f,,,
,,,,,,,,2117,2022-04-06_16h02.41.496,ImplicitInfinitySC-SLOWTASK,2021.2.3,Win32,59.85515054,,,,space,0.2507,,,,,,,,,,f,1,0.6844,,0,68,68,19,1,Time is endless,f,,,
,,,,,,,,2117,2022-04-06_16h02.41.496,ImplicitInfinitySC-SLOWTASK,2021.2.3,Win32,59.85515054,,,,space,0.2515,,,,,,,,,,j,0,0.9187,,0,69,69,44,1,The number five cannot go on forever,f,,,
,,,,,,,,2117,2022-04-06_16h02.41.496,ImplicitInfinitySC-SLOWTASK,2021.2.3,Win32,59.85515054,,,,space,0.147,,,,,,,,,,j,1,1.45,,0,70,70,80,1,Mittens need nutrients,j,,,
,,,,,,,,2117,2022-04-06_16h02.41.496,ImplicitInfinitySC-SLOWTASK,2021.2.3,Win32,59.85515054,,,,space,0.1594,,,,,,,,,,j,1,0.7687,,0,71,71,11,1,An inch is endless,j,,,
,,,,,,,,2117,2022-04-06_16h02.41.496,ImplicitInfinitySC-SLOWTASK,2021.2.3,Win32,59.85515054,,,,space,0.1849,,,,,,,,,,f,1,0.697,,0,72,72,57,1,Rocks have a molecular structure,f,,,
,,,,,,,,2117,2022-04-06_16h02.41.496,ImplicitInfinitySC-SLOWTASK,2021.2.3,Win32,59.85515054,,,,space,0.3029,,,,,,,,,,j,1,1.0574,,0,73,73,124,1,The president of the United States is Oprah,j,,,
,,,,,,,,2117,2022-04-06_16h02.41.496,ImplicitInfinitySC-SLOWTASK,2021.2.3,Win32,59.85515054,,,,space,0.2067,,,,,,,,,,f,1,0.9465,,0,74,74,56,1,Diamonds have a molecular structure,f,,,
,,,,,,,,2117,2022-04-06_16h02.41.496,ImplicitInfinitySC-SLOWTASK,2021.2.3,Win32,59.85515054,,,,space,0.2461,,,,,,,,,,j,1,0.7552,,0,75,75,109,1,A square is a color,j,,,
,,,,,,,,2117,2022-04-06_16h02.41.496,ImplicitInfinitySC-SLOWTASK,2021.2.3,Win32,59.85515054,,,,space,0.2368,,,,,,,,,,j,1,1.1089,,0,76,76,85,1,Thoughts are composed of matter,j,,,
,,,,,,,,2117,2022-04-06_16h02.41.496,ImplicitInfinitySC-SLOWTASK,2021.2.3,Win32,59.85515054,,,,space,0.175,,,,,,,,,,j,1,1.08,,0,77,77,114,1,Lightbulbs are made of clay,j,,,
,,,,,,,,2117,2022-04-06_16h02.41.496,ImplicitInfinitySC-SLOWTASK,2021.2.3,Win32,59.85515054,,,,space,0.1802,,,,,,,,,,j,1,1.0043,,0,78,78,127,1,A zebra is used to write,j,,,
,,,,,,,,2117,2022-04-06_16h02.41.496,ImplicitInfinitySC-SLOWTASK,2021.2.3,Win32,59.85515054,,,,space,0.2083,,,,,,,,,,f,1,1.4167,,0,79,79,53,1,Bricks can be put in a container,f,,,
,,,,,,,,2117,2022-04-06_16h02.41.496,ImplicitInfinitySC-SLOWTASK,2021.2.3,Win32,59.85515054,,,,space,0.1826,,,,,,,,,,f,0,2.8493,,0,80,80,34,1,Numbers have an end,j,,,
,,,,,,,,2117,2022-04-06_16h02.41.496,ImplicitInfinitySC-SLOWTASK,2021.2.3,Win32,59.85515054,,,,,,,,,,,,,,,,,,,,,,,,,,,space,1.8038
