SlowInstructions,practicetext,practicecorrect,Statement,Correct,SlowInstrLoop.thisRepN,SlowInstrLoop.thisTrialN,SlowInstrLoop.thisN,SlowInstrLoop.thisIndex,slowpracticeloop.thisRepN,slowpracticeloop.thisTrialN,slowpracticeloop.thisN,slowpracticeloop.thisIndex,SlowLoop.thisRepN,SlowLoop.thisTrialN,SlowLoop.thisN,SlowLoop.thisIndex,SlowInstrText.started,SlowInstrText.stopped,SlowInstrKey.keys,SlowInstrKey.rt,SlowInstrKey.started,SlowInstrKey.stopped,FixcrossPractice.started,FixcrossPractice.stopped,PracticeText.started,PracticeText.stopped,key_resp_2.keys,key_resp_2.corr,key_resp_2.rt,key_resp_2.started,key_resp_2.stopped,text.started,text.stopped,key_resp_4.keys,key_resp_4.rt,key_resp_4.started,key_resp_4.stopped,PracticeEndText.started,PracticeEndText.stopped,key_resp_3.keys,key_resp_3.rt,key_resp_3.started,key_resp_3.stopped,polygon.started,polygon.stopped,SlowText.started,SlowText.stopped,SlowKey.keys,SlowKey.corr,SlowKey.rt,SlowKey.started,SlowKey.stopped,encouragetext.started,encouragetext.stopped,encouragekey.keys,encouragekey.started,encouragekey.stopped,encouragekey.rt,participant,date,expName,psychopyVersion,frameRate,
"You will be shown a total of 80 statements pertaining to mathematics, science, and social concepts. Your task is to determine whether each statement is true or false. Some statements will be difficult and some will be easier.  We do not expect you to know the correct answer for all 80 statements.  Press F to Continue",,,,,0,0,0,0,,,,,,,,,24.93347682300373,None,f,0.8922664489946328,24.93347682300373,None,,,,,,,,,,,,,,,,,,,,,,,,,,,,,,,,,,,,,215450,2022_Feb_16_1650,Scientific and Linguistic Understanding,2021.2.3,59.850982067831815,
We urge you to try your best and take your time. Each statement will appear on your screen and you will have as much time as you need to decide if it is true or false. Press F to continue,,,,,0,1,1,1,,,,,,,,,25.867384726007003,None,f,0.41013293000287376,25.867384726007003,None,,,,,,,,,,,,,,,,,,,,,,,,,,,,,,,,,,,,,215450,2022_Feb_16_1650,Scientific and Linguistic Understanding,2021.2.3,59.850982067831815,
"If the statement is true, you will press the “F” key on your keyboard with your left pointer finger; if the statement is false, you will press the “J” key on your keyboard with your right pointer finger. Press F to continue",,,,,0,2,2,2,,,,,,,,,26.33311909000622,None,f,0.4673491230059881,26.33311909000622,None,,,,,,,,,,,,,,,,,,,,,,,,,,,,,,,,,,,,,215450,2022_Feb_16_1650,Scientific and Linguistic Understanding,2021.2.3,59.850982067831815,
"Prior to completing the study, you will complete 10 practice trials to familiarize yourself with the task. Your performance on these trials will determine your participation in the following study. Press 'F' to continue.",,,,,0,3,3,3,,,,,,,,,26.851085767004406,None,f,0.38745833400753327,26.851085767004406,None,,,,,,,,,,,,,,,,,,,,,,,,,,,,,,,,,,,,,215450,2022_Feb_16_1650,Scientific and Linguistic Understanding,2021.2.3,59.850982067831815,
"If the statement is true, press the “F” key on your keyboard with your left pointer finger; if the statement is false, press the “J” key on your keyboard with your right pointer finger. Press F to continue",,,,,0,4,4,4,,,,,,,,,27.282630811998388,None,f,0.3607709110074211,27.282630811998388,None,,,,,,,,,,,,,,,,,,,,,,,,,,,,,,,,,,,,,215450,2022_Feb_16_1650,Scientific and Linguistic Understanding,2021.2.3,59.850982067831815,
,A truck is an animal,j,,,,,,,0,0,0,5,,,,,,,,,,,27.7169507840008,28.167483127996093,28.18372128298506,None,j,1,1.745126017020084,28.684127042011824,None,30.44962079200195,None,space,1.4616846189892385,30.44962079200195,None,,,,,,,,,,,,,,,,,,,,,,215450,2022_Feb_16_1650,Scientific and Linguistic Understanding,2021.2.3,59.850982067831815,
,Jupiter is the planet we live on,j,,,,,,,0,1,1,6,,,,,,,,,,,31.951305899012368,32.40042067298782,32.4342425299983,None,j,1,0.7412004030193202,32.93406080000568,None,33.70144448100473,None,space,0.33670282099046744,33.70144448100473,None,,,,,,,,,,,,,,,,,,,,,,215450,2022_Feb_16_1650,Scientific and Linguistic Understanding,2021.2.3,59.850982067831815,
,Humans cannot eat food,j,,,,,,,0,2,2,9,,,,,,,,,,,34.067477631993825,34.53499655800988,34.55082883799332,None,j,1,1.057564482995076,35.051398796989815,None,36.1340292019886,None,space,0.42800308600999415,36.1340292019886,None,,,,,,,,,,,,,,,,,,,,,,215450,2022_Feb_16_1650,Scientific and Linguistic Understanding,2021.2.3,59.850982067831815,
,Magenta is a color,f,,,,,,,0,3,3,2,,,,,,,,,,,36.58438675600337,37.03452358400682,37.06746619500336,None,f,1,0.47390688900486566,37.567080629989505,None,38.06644239099114,None,space,0.4054208490124438,38.06644239099114,None,,,,,,,,,,,,,,,,,,,,,,215450,2022_Feb_16_1650,Scientific and Linguistic Understanding,2021.2.3,59.850982067831815,
,A clock is used to tell time,f,,,,,,,0,4,4,3,,,,,,,,,,,38.51695621799445,38.967343339987565,39.000077512988355,None,f,1,0.2753392770246137,39.50028840199229,None,39.80006903098547,None,space,0.29873288501403295,39.80006903098547,None,,,,,,,,,,,,,,,,,,,,,,215450,2022_Feb_16_1650,Scientific and Linguistic Understanding,2021.2.3,59.850982067831815,
,Humans cannot breathe water,f,,,,,,,0,5,5,4,,,,,,,,,,,40.13410940399626,40.58357227398665,40.61733270200784,None,j,0,1.5305683909973595,41.11701208198792,None,42.6678839919914,None,space,0.39673503499943763,42.6678839919914,None,,,,,,,,,,,,,,,,,,,,,,215450,2022_Feb_16_1650,Scientific and Linguistic Understanding,2021.2.3,59.850982067831815,
,Mississippi is a country,j,,,,,,,0,6,6,8,,,,,,,,,,,43.084642019995954,43.53368710400537,43.567173465999076,None,j,1,1.64033070197911,44.068221391993575,None,45.73538430800545,None,space,0.39595215398003347,45.73538430800545,None,,,,,,,,,,,,,,,,,,,,,,215450,2022_Feb_16_1650,Scientific and Linguistic Understanding,2021.2.3,59.850982067831815,
,A circle is a shape,f,,,,,,,0,7,7,0,,,,,,,,,,,46.15171712599113,46.60204342799261,46.635566623008344,None,f,1,0.14653917899704538,47.13469416598673,None,47.300822257995605,None,space,0.2995167829794809,47.300822257995605,None,,,,,,,,,,,,,,,,,,,,,,215450,2022_Feb_16_1650,Scientific and Linguistic Understanding,2021.2.3,59.850982067831815,
,Dinosaurs are extinct,f,,,,,,,0,8,8,1,,,,,,,,,,,47.6192265439895,48.06882419300382,48.10206581099192,None,f,1,0.35360706798383035,48.6024753380043,None,48.98498974798713,None,space,0.29848525099805556,48.98498974798713,None,,,,,,,,,,,,,,,,,,,,,,215450,2022_Feb_16_1650,Scientific and Linguistic Understanding,2021.2.3,59.850982067831815,
,The Earth is a star,j,,,,,,,0,9,9,7,,,,,,,,,,,49.30108363198815,49.75256957500824,49.78528531800839,None,j,1,1.6334945509734098,50.285664975992404,None,51.93550580300507,None,space,0.390531357988948,51.93550580300507,None,,,,,,,,,,,,,,,,,,,,,,215450,2022_Feb_16_1650,Scientific and Linguistic Understanding,2021.2.3,59.850982067831815,
,,,,,,,,,,,,,,,,,,,,,,,,,,,,,,,,,,,,,,52.38531651199446,None,f,0.3182624950131867,53.36954777498613,None,,,,,,,,,,,,,,,,215450,2022_Feb_16_1650,Scientific and Linguistic Understanding,2021.2.3,59.850982067831815,
,,,Algae is alive,f,,,,,,,,,0,0,0,92,,,,,,,,,,,,,,,,55.90279156900942,None,space,0.7727389159845188,55.90279156900942,None,,,,,,,53.767847351991804,54.16998701301054,54.251700421009446,None,f,1,1.1297250560019165,54.75114263998694,None,55.9013995777932,None,None,55.9013995777932,None,,215450,2022_Feb_16_1650,Scientific and Linguistic Understanding,2021.2.3,59.850982067831815,
,,,A minute cannot be further divided,j,,,,,,,,,0,1,1,6,,,,,,,,,,,,,,,,61.26981007499853,None,space,0.4705099889833946,61.26981007499853,None,,,,,,,56.70193849800853,57.1019377259945,57.184980472986354,None,j,1,3.553506775002461,57.68483587499941,None,61.269045006803935,None,None,61.269045006803935,None,,215450,2022_Feb_16_1650,Scientific and Linguistic Understanding,2021.2.3,59.850982067831815,
,,,Helicopters reproduce,j,,,,,,,,,0,2,2,86,,,,,,,,,,,,,,,,63.21909936799784,None,space,0.35399489701376297,63.21909936799784,None,,,,,,,61.786345711007016,62.202879082993604,62.268599726987304,None,j,1,0.42138897100812756,62.769149881991325,None,63.21800796780735,None,None,63.21800796780735,None,,215450,2022_Feb_16_1650,Scientific and Linguistic Understanding,2021.2.3,59.850982067831815,
,,,Humans can drink water,f,,,,,,,,,0,3,3,120,,,,,,,,,,,,,,,,65.56904780399054,None,space,0.35478694099583663,65.56904780399054,None,,,,,,,63.61911496400717,64.01890539799933,64.08554987600655,None,f,1,0.9568593489821069,64.58527412000694,None,65.56816308980342,None,None,65.56816308980342,None,,215450,2022_Feb_16_1650,Scientific and Linguistic Understanding,2021.2.3,59.850982067831815,
,,,A minute is endless,j,,,,,,,,,0,4,4,3,,,,,,,,,,,,,,,,69.48687948100269,None,space,0.4177655189996585,69.48687948100269,None,,,,,,,65.96926619598526,66.36978303801152,66.43541652598651,None,j,1,2.5195604389882647,66.9362398039957,None,69.48622399879969,None,None,69.48622399879969,None,,215450,2022_Feb_16_1650,Scientific and Linguistic Understanding,2021.2.3,59.850982067831815,
,,,Mushrooms reproduce,f,,,,,,,,,0,5,5,96,,,,,,,,,,,,,,,,72.2523274589912,None,space,0.3742161810223479,72.2523274589912,None,,,,,,,69.93637546201353,70.33722933800891,70.43680291398778,None,f,1,1.2884241149877198,70.93718392000301,None,72.2522610607848,None,None,72.2522610607848,None,,215450,2022_Feb_16_1650,Scientific and Linguistic Understanding,2021.2.3,59.850982067831815,
,,,The United States is a country,f,,,,,,,,,0,6,6,127,,,,,,,,,,,,,,,,74.00336859098752,None,space,0.35421736899297684,74.00336859098752,None,,,,,,,72.65285585701349,73.05405758900451,73.13674832100514,None,f,1,0.3483184489887208,73.63721338400501,None,74.00353734981036,None,None,74.00353734981036,None,,215450,2022_Feb_16_1650,Scientific and Linguistic Understanding,2021.2.3,59.850982067831815,
,,,Space cannot be further divided,j,,,,,,,,,0,7,7,54,,,,,,,,,,,,,,,,80.31957846300793,None,space,0.44034798099892214,80.31957846300793,None,,,,,,,74.40371976001188,74.80394938998506,74.88681000299403,None,j,1,4.912674257997423,75.38741475099232,None,80.32021939879633,None,None,80.32021939879633,None,,215450,2022_Feb_16_1650,Scientific and Linguistic Understanding,2021.2.3,59.850982067831815,
,,,Mittens need nutrients,j,,,,,,,,,0,8,8,104,,,,,,,,,,,,,,,,82.23608184501063,None,space,0.35002181300660595,82.23608184501063,None,,,,,,,80.80326238198904,81.20325708799646,81.28662562300451,None,j,1,0.4231903850159142,81.78776054701302,None,82.23604155078647,None,None,82.23604155078647,None,,215450,2022_Feb_16_1650,Scientific and Linguistic Understanding,2021.2.3,59.850982067831815,
,,,A motorcycle is a vehicle,f,,,,,,,,,0,9,9,123,,,,,,,,,,,,,,,,84.50478976100567,None,space,0.25995273399166763,84.50478976100567,None,,,,,,,82.60373984300531,83.00446983799338,83.08784646200365,None,f,1,0.883978340018075,83.58792579898727,None,84.5036165358033,None,None,84.5036165358033,None,,215450,2022_Feb_16_1650,Scientific and Linguistic Understanding,2021.2.3,59.850982067831815,
,,,Intervals of time cannot go on forever,f,,,,,,,,,0,10,10,20,,,,,,,,,,,,,,,,91.15539550798712,None,space,0.6359638459980488,91.15539550798712,None,,,,,,,84.78827250099857,85.1879706440086,85.27148312199279,None,j,0,5.359855516988318,85.77185704698786,None,91.1541796188103,None,None,91.1541796188103,None,,215450,2022_Feb_16_1650,Scientific and Linguistic Understanding,2021.2.3,59.850982067831815,
,,,A minute can go on forever,j,,,,,,,,,0,11,11,5,,,,,,,,,,,,,,,,95.3379245410033,None,space,0.1362666140194051,95.3379245410033,None,,,,,,,91.82118319699657,92.22525779198622,92.30389950200333,None,j,1,2.5066910950117745,92.8035831520101,None,95.33772685480653,None,None,95.33772685480653,None,,215450,2022_Feb_16_1650,Scientific and Linguistic Understanding,2021.2.3,59.850982067831815,
,,,Humans cannot eat food,j,,,,,,,,,0,12,12,141,,,,,,,,,,,,,,,,97.52242688598926,None,space,0.1036704349971842,97.52242688598926,None,,,,,,,95.50385887001175,95.90413429299952,95.98764830600703,None,j,1,1.0018180730112363,96.48919411899988,None,97.52223764979863,None,None,97.52223764979863,None,,215450,2022_Feb_16_1650,Scientific and Linguistic Understanding,2021.2.3,59.850982067831815,
,,,Jupiter is the planet we live on,j,,,,,,,,,0,13,13,145,,,,,,,,,,,,,,,,99.80562651398941,None,space,0.12826114302151836,99.80562651398941,None,,,,,,,97.67230665800162,98.0728033129999,98.15490502701141,None,j,1,1.1315830970124807,98.65440971701173,None,99.80484012278612,None,None,99.80484012278612,None,,215450,2022_Feb_16_1650,Scientific and Linguistic Understanding,2021.2.3,59.850982067831815,
,,,Songs can be put in a container,j,,,,,,,,,0,14,14,107,,,,,,,,,,,,,,,,103.5886321660073,None,space,0.16686538798967376,103.5886321660073,None,,,,,,,99.95576990698464,100.35564029600937,100.43905883000116,None,j,1,2.6236711839737836,100.93894681398524,None,103.58798842781107,None,None,103.58798842781107,None,,215450,2022_Feb_16_1650,Scientific and Linguistic Understanding,2021.2.3,59.850982067831815,
,,,Pelicans are alive,f,,,,,,,,,0,15,15,73,,,,,,,,,,,,,,,,105.2549164230004,None,space,0.1856288790004328,105.2549164230004,None,,,,,,,103.78919983201195,104.20475440999144,104.28816956400988,None,f,1,0.4460891849885229,104.78842036999413,None,105.25476222779253,None,None,105.25476222779253,None,,215450,2022_Feb_16_1650,Scientific and Linguistic Understanding,2021.2.3,59.850982067831815,
,,,Hammers are alive,j,,,,,,,,,0,16,16,102,,,,,,,,,,,,,,,,106.72270054000546,None,space,0.14768088300479576,106.72270054000546,None,,,,,,,105.4880697040062,105.88842974501313,105.955199516,None,f,0,0.2382732880068943,106.45619422799791,None,106.72242200479377,None,None,106.72242200479377,None,,215450,2022_Feb_16_1650,Scientific and Linguistic Understanding,2021.2.3,59.850982067831815,
,,,Bricks can be put in a container,f,,,,,,,,,0,17,17,77,,,,,,,,,,,,,,,,108.42332043001079,None,space,0.12479552498552948,108.42332043001079,None,,,,,,,106.88947569401353,107.2876916610112,107.37285118698492,None,f,1,0.5241128500201739,107.8723858880112,None,108.42277974679018,None,None,108.42277974679018,None,,215450,2022_Feb_16_1650,Scientific and Linguistic Understanding,2021.2.3,59.850982067831815,
,,,Spatial intervals can be finite,f,,,,,,,,,0,18,18,24,,,,,,,,,,,,,,,,110.68887963998714,None,space,0.1601999819977209,110.68887963998714,None,,,,,,,108.58901076600887,108.9899487470102,109.07276279598591,None,f,1,1.0995775530172978,109.57181712699821,None,110.68840842379723,None,None,110.68840842379723,None,,215450,2022_Feb_16_1650,Scientific and Linguistic Understanding,2021.2.3,59.850982067831815,
,,,Spatial intervals can go on forever,f,,,,,,,,,0,19,19,29,,,,,,,,,,,,,,,,114.17258824198507,None,space,0.16544945898931473,114.17258824198507,None,,,,,,,110.88924569101073,111.28874787699897,111.37197843199829,None,f,1,2.277747009997256,111.87221529599628,None,114.17209451680537,None,None,114.17209451680537,None,,215450,2022_Feb_16_1650,Scientific and Linguistic Understanding,2021.2.3,59.850982067831815,
,,,Time is endless,f,,,,,,,,,0,20,20,43,,,,,,,,,,,,,,,,116.08942148298956,None,space,2.1673764010192826,116.08942148298956,None,,,,,,,114.37193511499208,114.77183219700237,114.83875561298919,None,f,1,0.5582712819741573,115.33891911600949,None,115.92189852299634,None,space,115.92189852299634,None,0.1491566650220193,215450,2022_Feb_16_1650,Scientific and Linguistic Understanding,2021.2.3,59.850982067831815,
,,,Intervals of time can have an end,f,,,,,,,,,0,21,21,18,,,,,,,,,,,,,,,,122.52267832201323,None,space,0.13292092198389582,122.52267832201323,None,,,,,,,118.29048461600905,118.69018824701197,118.79022821399849,None,f,1,3.2152156310039572,119.28938719298458,None,122.52268069778802,None,None,122.52268069778802,None,,215450,2022_Feb_16_1650,Scientific and Linguistic Understanding,2021.2.3,59.850982067831815,
,,,Five is infinite,j,,,,,,,,,0,22,22,65,,,,,,,,,,,,,,,,124.32365167199168,None,space,0.10051997902337462,124.32365167199168,None,,,,,,,122.70617322900216,123.10614183000871,123.18917048198637,None,j,1,0.6113547220011242,123.68902996799443,None,124.32293574081268,None,None,124.32293574081268,None,,215450,2022_Feb_16_1650,Scientific and Linguistic Understanding,2021.2.3,59.850982067831815,
,,,Foam is composed of matter,f,,,,,,,,,0,23,23,98,,,,,,,,,,,,,,,,126.20622403599555,None,space,0.1778009919798933,126.20622403599555,None,,,,,,,124.4557768680097,124.85637172299903,124.94029105399386,None,f,1,0.7467217429948505,125.439492548001,None,126.20590155679383,None,None,126.20590155679383,None,,215450,2022_Feb_16_1650,Scientific and Linguistic Understanding,2021.2.3,59.850982067831815,
,,,Concrete is composed of matter,f,,,,,,,,,0,24,24,79,,,,,,,,,,,,,,,,127.93971559399506,None,space,0.14428998102084734,127.93971559399506,None,,,,,,,126.40600353400805,126.80643768500886,126.88958099999581,None,f,1,0.5272730519936886,127.38981516499189,None,127.93981669979985,None,None,127.93981669979985,None,,215450,2022_Feb_16_1650,Scientific and Linguistic Understanding,2021.2.3,59.850982067831815,
,,,Numerical intervals can be infinite,f,,,,,,,,,0,25,25,33,,,,,,,,,,,,,,,,129.93975979200331,None,space,0.15809778301627375,129.93975979200331,None,,,,,,,128.12273412500508,128.52318580000428,128.60629909599083,None,f,1,0.8143583399942145,129.1066606339882,None,129.94009639578871,None,None,129.94009639578871,None,,215450,2022_Feb_16_1650,Scientific and Linguistic Understanding,2021.2.3,59.850982067831815,
,,,Spatial intervals  can have an end,f,,,,,,,,,0,26,26,26,,,,,,,,,,,,,,,,133.12327871099114,None,space,0.15734391901060008,133.12327871099114,None,,,,,,,130.14022499800194,130.54025282899966,130.62320439898758,None,f,1,1.979409604013199,131.12337884301087,None,133.1230341407936,None,None,133.1230341407936,None,,215450,2022_Feb_16_1650,Scientific and Linguistic Understanding,2021.2.3,59.850982067831815,
,,,Frogs reproduce,f,,,,,,,,,0,27,27,76,,,,,,,,,,,,,,,,134.42324562199065,None,space,0.14333203999558464,134.42324562199065,None,,,,,,,133.30683066201163,133.70687205900322,133.78957589899073,None,f,1,0.10486983499140479,134.2899298609991,None,134.42284265780472,None,None,134.42284265780472,None,,215450,2022_Feb_16_1650,Scientific and Linguistic Understanding,2021.2.3,59.850982067831815,
,,,Bubbles can be put in a container,f,,,,,,,,,0,28,28,97,,,,,,,,,,,,,,,,136.69142347801244,None,space,0.1402125820168294,136.69142347801244,None,,,,,,,134.59104817200569,134.99042146699503,135.0732783410058,None,f,1,1.092929306003498,135.57465771399438,None,136.69067435979377,None,None,136.69067435979377,None,,215450,2022_Feb_16_1650,Scientific and Linguistic Understanding,2021.2.3,59.850982067831815,
,,,Numbers are finite,j,,,,,,,,,0,29,29,56,,,,,,,,,,,,,,,,138.37402114699944,None,space,0.12535744099295698,138.37402114699944,None,,,,,,,136.85726281101233,137.25837475800654,137.3415935820085,None,f,0,0.5148161870019976,137.84083316099714,None,138.37455838778988,None,None,138.37455838778988,None,,215450,2022_Feb_16_1650,Scientific and Linguistic Understanding,2021.2.3,59.850982067831815,
,,,Stones reproduce,j,,,,,,,,,0,30,30,106,,,,,,,,,,,,,,,,139.92455829298706,None,space,0.12879457502276637,139.92455829298706,None,,,,,,,138.5244528070034,138.9253574750037,139.0085968140047,None,f,0,0.3840740890009329,139.50828609301243,None,139.92519728880143,None,None,139.92519728880143,None,,215450,2022_Feb_16_1650,Scientific and Linguistic Understanding,2021.2.3,59.850982067831815,
,,,A minute is finite,f,,,,,,,,,0,31,31,0,,,,,,,,,,,,,,,,141.57542764701066,None,space,0.6065949449839536,141.57542764701066,None,,,,,,,140.07449389400426,140.4753790019895,140.55863960200804,None,f,1,0.48400025800219737,141.0582855679968,None,141.57489333179547,None,None,141.57489333179547,None,,215450,2022_Feb_16_1650,Scientific and Linguistic Understanding,2021.2.3,59.850982067831815,
,,,Saliva has a molecular structure,f,,,,,,,,,0,32,32,101,,,,,,,,,,,,,,,,143.72568913100986,None,space,0.11722694800118916,143.72568913100986,None,,,,,,,142.2073631369858,142.60856872898876,142.69252891500946,None,f,1,0.5030049229972064,143.19216459000017,None,143.72401719380287,None,None,143.72401719380287,None,,215450,2022_Feb_16_1650,Scientific and Linguistic Understanding,2021.2.3,59.850982067831815,
,,,Thoughts are composed of matter,j,,,,,,,,,0,33,33,109,,,,,,,,,,,,,,,,145.34245274899877,None,space,0.14355896299821325,145.34245274899877,None,,,,,,,143.8915996249998,144.29084949399112,144.3741663559922,None,j,1,0.44621212099445984,144.87587784198695,None,145.34182399880956,None,None,145.34182399880956,None,,215450,2022_Feb_16_1650,Scientific and Linguistic Understanding,2021.2.3,59.850982067831815,
,,,The Earth is a planet,f,,,,,,,,,0,34,34,126,,,,,,,,,,,,,,,,147.00888149198727,None,space,0.16281857900321484,147.00888149198727,None,,,,,,,145.50884850500734,145.90903578599682,145.99210513199796,None,f,1,0.48524581899982877,146.49270271800924,None,147.00869695079746,None,None,147.00869695079746,None,,215450,2022_Feb_16_1650,Scientific and Linguistic Understanding,2021.2.3,59.850982067831815,
,,,A pencil is used to write,f,,,,,,,,,0,35,35,131,,,,,,,,,,,,,,,,149.5427907060075,None,space,0.17780027800472453,149.5427907060075,None,,,,,,,147.19100963301025,147.5908165530127,147.67541788500967,None,f,1,1.3383418390003499,148.17564480099827,None,149.5418189727934,None,None,149.5418189727934,None,,215450,2022_Feb_16_1650,Scientific and Linguistic Understanding,2021.2.3,59.850982067831815,
,,,Five can be further divided,f,,,,,,,,,0,36,36,71,,,,,,,,,,,,,,,,152.47597969998606,None,space,0.1434681249957066,152.47597969998606,None,,,,,,,149.74252346000867,150.14276826899732,150.22575068401056,None,f,1,1.7254835719941184,150.7261526020011,None,152.47504236278473,None,None,152.47504236278473,None,,215450,2022_Feb_16_1650,Scientific and Linguistic Understanding,2021.2.3,59.850982067831815,
,,,An inch is endless,j,,,,,,,,,0,37,37,11,,,,,,,,,,,,,,,,155.64238177100196,None,space,0.10306976499850862,155.64238177100196,None,,,,,,,152.64260542398551,153.0419954060053,153.12595678199432,None,j,1,1.996323052997468,153.62509827900794,None,155.64205324978684,None,None,155.64205324978684,None,,215450,2022_Feb_16_1650,Scientific and Linguistic Understanding,2021.2.3,59.850982067831815,
,,,Numbers have an end,j,,,,,,,,,0,38,38,58,,,,,,,,,,,,,,,,159.57490555400727,None,space,0.11808362099691294,159.57490555400727,None,,,,,,,155.77503696401254,156.1759668040031,156.25938937600586,None,j,1,2.79025512500084,156.75990651600296,None,159.57515991679975,None,None,159.57515991679975,None,,215450,2022_Feb_16_1650,Scientific and Linguistic Understanding,2021.2.3,59.850982067831815,
,,,Numbers can go on forever,f,,,,,,,,,0,39,39,61,,,,,,,,,,,,,,,,161.64264587400248,None,space,0.17934620199957862,161.64264587400248,None,,,,,,,159.7257139699941,160.12595133698778,160.2256522430107,None,f,1,0.8959579369984567,160.72524517698912,None,161.64176097579184,None,None,161.64176097579184,None,,215450,2022_Feb_16_1650,Scientific and Linguistic Understanding,2021.2.3,59.850982067831815,
,,,Shadows are composed of matter,j,,,,,,,,,0,40,40,89,,,,,,,,,,,,,,,,163.79225756198866,None,space,0.1327806769986637,163.79225756198866,None,,,,,,,161.84358790901024,162.25871434999863,162.32687775598606,None,j,1,0.9368302660004701,162.82715989500866,None,163.79188222979428,None,None,163.79188222979428,None,,215450,2022_Feb_16_1650,Scientific and Linguistic Understanding,2021.2.3,59.850982067831815,
,,,Intervals of time can go on forever,f,,,,,,,,,0,41,41,21,,,,,,,,,,,,,,,,165.67630580998957,None,space,0.10749433198361658,165.67630580998957,None,,,,,,,163.94255971800885,164.34366385699832,164.42712679700344,None,f,1,0.722086018009577,164.92570407799212,None,165.6756880597968,None,None,165.6756880597968,None,,215450,2022_Feb_16_1650,Scientific and Linguistic Understanding,2021.2.3,59.850982067831815,
,,,A motorcycle is a person,j,,,,,,,,,0,42,42,143,,,,,,,,,,,,,,,,167.89330335799605,None,space,0.0753798329969868,167.89330335799605,None,,,,,,,165.82703685300658,166.22602629000903,166.30944847798673,None,j,1,1.050761632999638,166.8098916420131,None,167.8919200648088,None,None,167.8919200648088,None,,215450,2022_Feb_16_1650,Scientific and Linguistic Understanding,2021.2.3,59.850982067831815,
,,,A square is a shape,f,,,,,,,,,0,43,43,113,,,,,,,,,,,,,,,,169.35911661200225,None,space,0.17327831900911406,169.35911661200225,None,,,,,,,168.01020362900454,168.42618636699626,168.49280349101173,None,f,1,0.34734911800478585,168.99212292500306,None,169.35894063379965,None,None,169.35894063379965,None,,215450,2022_Feb_16_1650,Scientific and Linguistic Understanding,2021.2.3,59.850982067831815,
,,,A square is a color,j,,,,,,,,,0,44,44,133,,,,,,,,,,,,,,,,170.99270515798707,None,space,0.12076634401455522,170.99270515798707,None,,,,,,,169.5776253269869,169.99232797601144,170.05922488498618,None,j,1,0.4161680919933133,170.5594021959987,None,170.99282317078905,None,None,170.99282317078905,None,,215450,2022_Feb_16_1650,Scientific and Linguistic Understanding,2021.2.3,59.850982067831815,
,,,Time is finite,j,,,,,,,,,0,45,45,40,,,,,,,,,,,,,,,,172.54355125399888,None,space,0.1504193410219159,172.54355125399888,None,,,,,,,171.1591105189873,171.55965074300184,171.62594979800633,None,j,1,0.3957542060234118,172.12769016600214,None,172.5432499978051,None,None,172.5432499978051,None,,215450,2022_Feb_16_1650,Scientific and Linguistic Understanding,2021.2.3,59.850982067831815,
,,,Intervals of time can be endless,f,,,,,,,,,0,46,46,19,,,,,,,,,,,,,,,,174.47742455199477,None,space,0.21768045000499114,174.47742455199477,None,,,,,,,172.71032801800175,173.1101083639951,173.19419849099359,None,f,1,0.7561455279937945,173.6941499579989,None,174.47643276379677,None,None,174.47643276379677,None,,215450,2022_Feb_16_1650,Scientific and Linguistic Understanding,2021.2.3,59.850982067831815,
,,,A minute has an end,f,,,,,,,,,0,47,47,2,,,,,,,,,,,,,,,,176.64414752199082,None,space,0.32977224001660943,176.64414752199082,None,,,,,,,174.7436920730106,175.1440194839961,175.22765131198685,None,f,1,0.8948084629955702,175.72742718699737,None,176.64277419279097,None,None,176.64277419279097,None,,215450,2022_Feb_16_1650,Scientific and Linguistic Understanding,2021.2.3,59.850982067831815,
,,,Space can go on forever,f,,,,,,,,,0,48,48,53,,,,,,,,,,,,,,,,178.54423476400552,None,space,0.14369853198877536,178.54423476400552,None,,,,,,,176.99382465699455,177.3944511039881,177.4778036730131,None,f,1,0.5381821019982453,177.9777500749915,None,178.54431987079442,None,None,178.54431987079442,None,,215450,2022_Feb_16_1650,Scientific and Linguistic Understanding,2021.2.3,59.850982067831815,
,,,A horse is used to tell time,j,,,,,,,,,0,49,49,142,,,,,,,,,,,,,,,,180.96116995898774,None,space,0.14452468900708482,180.96116995898774,None,,,,,,,178.7107028469909,179.11090234998846,179.19428427299135,None,j,1,1.2398237209999934,179.6940055770101,None,180.96032090680092,None,None,180.96032090680092,None,,215450,2022_Feb_16_1650,Scientific and Linguistic Understanding,2021.2.3,59.850982067831815,
,,,Oaks reproduce,f,,,,,,,,,0,50,50,95,,,,,,,,,,,,,,,,182.3782264009933,None,space,0.12251024099532515,182.3782264009933,None,,,,,,,181.12758484701044,181.54486801300664,181.61108194699045,None,f,1,0.23309117098688148,182.11174302798463,None,182.3772608198051,None,None,182.3772608198051,None,,215450,2022_Feb_16_1650,Scientific and Linguistic Understanding,2021.2.3,59.850982067831815,
,,,Dumbells are composed of matter,f,,,,,,,,,0,51,51,78,,,,,,,,,,,,,,,,184.57882044799044,None,space,0.11584243300603703,184.57882044799044,None,,,,,,,182.52708038300625,182.92857388200355,183.01128811898525,None,f,1,1.0394350529822987,183.51147659000708,None,184.57788434778922,None,None,184.57788434778922,None,,215450,2022_Feb_16_1650,Scientific and Linguistic Understanding,2021.2.3,59.850982067831815,
,,,Five is finite,f,,,,,,,,,0,52,52,64,,,,,,,,,,,,,,,,187.32819597798516,None,space,0.12328897000406869,187.32819597798516,None,,,,,,,184.7099839069997,185.1118913340033,185.1940722129948,None,f,1,1.6126132589997724,185.69492239601095,None,187.3274293007853,None,None,187.3274293007853,None,,215450,2022_Feb_16_1650,Scientific and Linguistic Understanding,2021.2.3,59.850982067831815,
,,,Yellow is an animal,j,,,,,,,,,0,53,53,139,,,,,,,,,,,,,,,,192.77832998801023,None,space,0.11360677899210714,192.77832998801023,None,,,,,,,187.47837192099541,187.87850359099684,187.96164347301237,None,j,1,4.296588319004513,188.4605099259934,None,192.7774514417979,None,None,192.7774514417979,None,,215450,2022_Feb_16_1650,Scientific and Linguistic Understanding,2021.2.3,59.850982067831815,
,,,Forks are alive,j,,,,,,,,,0,54,54,103,,,,,,,,,,,,,,,,194.49623008299386,None,space,0.048656845989171416,194.49623008299386,None,,,,,,,192.9117542289896,193.31241747600143,193.3958585220098,None,j,1,0.5775537560111843,193.89578770499793,None,194.49403118580813,None,None,194.49403118580813,None,,215450,2022_Feb_16_1650,Scientific and Linguistic Understanding,2021.2.3,59.850982067831815,
,,,Spatial intervals cannot be further divided,f,,,,,,,,,0,55,55,30,,,,,,,,,,,,,,,,201.37856590098818,None,space,0.05484994201106019,201.37856590098818,None,,,,,,,194.57844610599568,194.97810922199278,195.04562867598725,None,j,0,5.800256547023309,195.54522604399244,None,201.37871925378568,None,None,201.37871925378568,None,,215450,2022_Feb_16_1650,Scientific and Linguistic Understanding,2021.2.3,59.850982067831815,
,,,Orange is a color,f,,,,,,,,,0,56,56,118,,,,,,,,,,,,,,,,203.57931925699813,None,space,0.14398436501505785,203.57931925699813,None,,,,,,,201.47833919001278,201.87996610600385,201.94569220000994,None,f,1,1.1173488709900994,202.44620948500233,None,203.57994177180808,None,None,203.57994177180808,None,,215450,2022_Feb_16_1650,Scientific and Linguistic Understanding,2021.2.3,59.850982067831815,
,,,Space has an end,j,,,,,,,,,0,57,57,50,,,,,,,,,,,,,,,,206.44647778899525,None,space,0.07458152298931964,206.44647778899525,None,,,,,,,203.74575256099342,204.14629127000808,204.2299927060085,None,j,1,1.700804973981576,204.72871054100688,None,206.44637741780025,None,None,206.44637741780025,None,,215450,2022_Feb_16_1650,Scientific and Linguistic Understanding,2021.2.3,59.850982067831815,
,,,The Earth is a star,j,,,,,,,,,0,58,58,146,,,,,,,,,,,,,,,,208.2286181859963,None,space,0.10177980200387537,208.2286181859963,None,,,,,,,206.54620572100976,206.94620243398822,207.02980279701296,None,j,1,0.6783269960142206,207.52976595400833,None,208.22858726180857,None,None,208.22858726180857,None,,215450,2022_Feb_16_1650,Scientific and Linguistic Understanding,2021.2.3,59.850982067831815,
,,,Numerical intervals can go on forever,f,,,,,,,,,0,59,59,37,,,,,,,,,,,,,,,,214.2293092200125,None,space,0.13948905799770728,214.2293092200125,None,,,,,,,208.36151446399163,208.76159601900144,208.84537287199055,None,f,1,4.863355509995017,209.3453836789995,None,214.22911941481289,None,None,214.22911941481289,None,,215450,2022_Feb_16_1650,Scientific and Linguistic Understanding,2021.2.3,59.850982067831815,
,,,Magenta is a color,f,,,,,,,,,0,60,60,117,,,,,,,,,,,,,,,,215.58058423100738,None,space,0.12899711800855584,215.58058423100738,None,,,,,,,214.39704146800796,214.81344485501177,214.88008196800365,None,f,1,0.17474216999835335,215.37996070401277,None,215.57996961279423,None,None,215.57996961279423,None,,215450,2022_Feb_16_1650,Scientific and Linguistic Understanding,2021.2.3,59.850982067831815,
,,,A minute cannot go on forever,f,,,,,,,,,0,61,61,4,,,,,,,,,,,,,,,,218.8289461999957,None,space,0.378307159000542,218.8289461999957,None,,,,,,,215.72951756601105,216.12971749700955,216.2137781160127,None,f,1,2.0877905710076448,216.7137410969881,None,218.82924585480941,None,None,218.82924585480941,None,,215450,2022_Feb_16_1650,Scientific and Linguistic Understanding,2021.2.3,59.850982067831815,
,,,This sentence is written in English,f,,,,,,,,,0,62,62,112,,,,,,,,,,,,,,,,220.71244794898666,None,space,0.1199492720188573,220.71244794898666,None,,,,,,,219.24595625599613,219.6464304740075,219.7295900110039,None,f,1,0.45445568300783634,220.22980895699584,None,220.71294552579639,None,None,220.71294552579639,None,,215450,2022_Feb_16_1650,Scientific and Linguistic Understanding,2021.2.3,59.850982067831815,
,,,Five cannot be further divided,j,,,,,,,,,0,63,63,70,,,,,,,,,,,,,,,,225.29796300298767,None,space,0.05090656501124613,225.29796300298767,None,,,,,,,220.87931743898662,221.28038844501134,221.36362957500387,None,j,1,3.4254977770033292,221.84770363400457,None,225.29680182080483,None,None,225.29680182080483,None,,215450,2022_Feb_16_1650,Scientific and Linguistic Understanding,2021.2.3,59.850982067831815,
,,,Turtles need nutrients,f,,,,,,,,,0,64,64,74,,,,,,,,,,,,,,,,226.78103375600767,None,space,0.06692305600154214,226.78103375600767,None,,,,,,,225.396565928997,225.7977136769914,225.88096651399974,None,f,1,0.36716277798404917,226.38138959999196,None,226.77935085780337,None,None,226.77935085780337,None,,215450,2022_Feb_16_1650,Scientific and Linguistic Understanding,2021.2.3,59.850982067831815,
,,,Robots need nutrients,j,,,,,,,,,0,65,65,84,,,,,,,,,,,,,,,,228.6808958069887,None,space,0.10175624000839889,228.6808958069887,None,,,,,,,226.86447672900977,227.2803297729988,227.36312158001238,None,j,1,0.8119756929809228,227.8467956490058,None,228.6797328607936,None,None,228.6797328607936,None,,215450,2022_Feb_16_1650,Scientific and Linguistic Understanding,2021.2.3,59.850982067831815,
,,,Time has an end,j,,,,,,,,,0,66,66,42,,,,,,,,,,,,,,,,230.2983100170095,None,space,0.05740202500601299,230.2983100170095,None,,,,,,,228.8148888690048,229.2140869339928,229.29790763699566,None,j,1,0.4743707900051959,229.79742280900246,None,230.29634060981334,None,None,230.29634060981334,None,,215450,2022_Feb_16_1650,Scientific and Linguistic Understanding,2021.2.3,59.850982067831815,
,,,Humans can breathe water,j,,,,,,,,,0,67,67,140,,,,,,,,,,,,,,,,232.13095472898567,None,space,0.06949405197519809,232.13095472898567,None,,,,,,,230.39836763200583,230.8149540979939,230.88135557199712,None,j,1,0.7320676280069165,231.38107674900675,None,232.1309648907918,None,None,232.1309648907918,None,,215450,2022_Feb_16_1650,Scientific and Linguistic Understanding,2021.2.3,59.850982067831815,
,,,A minute is infinite,j,,,,,,,,,0,68,68,1,,,,,,,,,,,,,,,,234.01399456898798,None,space,0.027409524976974353,234.01399456898798,None,,,,,,,232.22991625999566,232.63157920900267,232.71408012899337,None,j,1,0.7662823350110557,233.21517068799585,None,234.0139088408032,None,None,234.0139088408032,None,,215450,2022_Feb_16_1650,Scientific and Linguistic Understanding,2021.2.3,59.850982067831815,
,,,A clock is used to tell time,f,,,,,,,,,0,69,69,122,,,,,,,,,,,,,,,,235.76507921199664,None,space,0.10216102100093849,235.76507921199664,None,,,,,,,234.06396528499317,234.46531510000932,234.54888029198628,None,f,1,0.6920385959965643,235.04750473500462,None,235.76449827480246,None,None,235.76449827480246,None,,215450,2022_Feb_16_1650,Scientific and Linguistic Understanding,2021.2.3,59.850982067831815,
,,,A zebra is used to write,j,,,,,,,,,0,70,70,151,,,,,,,,,,,,,,,,237.58085487000062,None,space,0.12719123999704607,237.58085487000062,None,,,,,,,235.91539988000295,236.31464205301018,236.38174817699473,None,j,1,0.6719483920023777,236.8813917330117,None,237.58057118181023,None,None,237.58057118181023,None,,215450,2022_Feb_16_1650,Scientific and Linguistic Understanding,2021.2.3,59.850982067831815,
,,,Intervals of time can be further divided,f,,,,,,,,,0,71,71,23,,,,,,,,,,,,,,,,242.71547375799855,None,space,0.1193663279991597,242.71547375799855,None,,,,,,,237.7473929169937,238.14711900698603,238.21400529600214,None,f,1,3.9841875809943303,238.71415797399823,None,242.71548984778929,None,None,242.71548984778929,None,,215450,2022_Feb_16_1650,Scientific and Linguistic Understanding,2021.2.3,59.850982067831815,
,,,Crocodiles are alive,f,,,,,,,,,0,72,72,72,,,,,,,,,,,,,,,,244.13169225098682,None,space,0.15717253799084574,244.13169225098682,None,,,,,,,242.88202371500665,243.29781185399042,243.36529256901122,None,f,1,0.23314459997345693,243.86564947100123,None,244.13117511878954,None,None,244.13117511878954,None,,215450,2022_Feb_16_1650,Scientific and Linguistic Understanding,2021.2.3,59.850982067831815,
,,,Numerical intervals cannot be further divided,f,,,,,,,,,0,73,73,38,,,,,,,,,,,,,,,,253.53175604200806,None,space,0.09748469697660767,253.53175604200806,None,,,,,,,244.3166144239949,244.73179470800096,244.79910841499805,None,j,0,8.210419178998563,245.2989914510108,None,253.5321952968079,None,None,253.5321952968079,None,,215450,2022_Feb_16_1650,Scientific and Linguistic Understanding,2021.2.3,59.850982067831815,
,,,Numbers cannot be further divided,j,,,,,,,,,0,74,74,62,,,,,,,,,,,,,,,,256.9664995369967,None,space,0.08639312401646748,256.9664995369967,None,,,,,,,253.66589604999172,254.06596693699248,254.13264633200015,None,j,1,2.312573319009971,254.63250273099402,None,256.9651843397878,None,None,256.9651843397878,None,,215450,2022_Feb_16_1650,Scientific and Linguistic Understanding,2021.2.3,59.850982067831815,
,,,Spatial intervals can be infinite,f,,,,,,,,,0,75,75,25,,,,,,,,,,,,,,,,259.5500050219998,None,space,0.1330868270015344,259.5500050219998,None,,,,,,,257.08269565500086,257.48333175099106,257.5666717099957,None,f,1,1.46124792000046,258.0656109509873,None,259.54976963679655,None,None,259.54976963679655,None,,215450,2022_Feb_16_1650,Scientific and Linguistic Understanding,2021.2.3,59.850982067831815,
,,,A triangle is a shape,f,,,,,,,,,0,76,76,114,,,,,,,,,,,,,,,,261.91680397698656,None,space,0.09179136800230481,261.91680397698656,None,,,,,,,259.6997776000062,260.0998872309865,260.18382108499645,None,f,1,1.2014498130010907,260.68329068098683,None,261.91650737580494,None,None,261.91650737580494,None,,215450,2022_Feb_16_1650,Scientific and Linguistic Understanding,2021.2.3,59.850982067831815,
,,,Time is infinite,f,,,,,,,,,0,77,77,41,,,,,,,,,,,,,,,,263.3656805079954,None,space,0.09897235900280066,263.3656805079954,None,,,,,,,262.0500664499996,262.46567799701006,262.51572400299483,None,f,1,0.3292580420093145,263.01532221600064,None,263.3652396808029,None,None,263.3652396808029,None,,215450,2022_Feb_16_1650,Scientific and Linguistic Understanding,2021.2.3,59.850982067831815,
,,,Five is endless,j,,,,,,,,,0,78,78,67,,,,,,,,,,,,,,,,265.94925138898543,None,space,0.11521710499073379,265.94925138898543,None,,,,,,,263.49925057499786,263.8990104859986,263.9659269269905,None,j,1,1.4563904480019119,264.4661578100058,None,265.9491683357919,None,None,265.9491683357919,None,,215450,2022_Feb_16_1650,Scientific and Linguistic Understanding,2021.2.3,59.850982067831815,
,,,Space is infinite,f,,,,,,,,,0,79,79,49,,,,,,,,,,,,,,,,267.6167931490054,None,space,0.11160571698565036,267.6167931490054,None,,,,,,,266.0828419220052,266.4841684529965,266.5675050599966,None,f,1,0.5250999520067126,267.06752273999155,None,267.61664080180344,None,None,267.61664080180344,None,,215450,2022_Feb_16_1650,Scientific and Linguistic Understanding,2021.2.3,59.850982067831815,
,,,Dinosaurs are not extinct,j,,,,,,,,,0,80,80,136,,,,,,,,,,,,,,,,269.34989386299276,None,space,0.10641811200184748,269.34989386299276,None,,,,,,,267.74985346000176,268.14909573999466,268.2330887549906,None,j,1,0.5989410640031565,268.73361303898855,None,269.35023773179273,None,None,269.35023773179273,None,,215450,2022_Feb_16_1650,Scientific and Linguistic Understanding,2021.2.3,59.850982067831815,
