SlowInstrKey.keys,SlowInstrKey.rt,SlowInstrLoop.thisRepN,SlowInstrLoop.thisTrialN,SlowInstrLoop.thisN,SlowInstrLoop.thisIndex,SlowInstrLoop.ran,SlowInstructions,participant,date,expName,psychopyVersion,OS,frameRate,key_resp_5.keys,key_resp_5.corr,key_resp_5.rt,key_resp_4.keys,key_resp_4.rt,slowpracticeloop.thisRepN,slowpracticeloop.thisTrialN,slowpracticeloop.thisN,slowpracticeloop.thisIndex,slowpracticeloop.ran,practicetext,practicecorrect,key_resp_3.keys,key_resp_3.rt,SlowKey.keys,SlowKey.corr,SlowKey.rt,encouragekey.keys,SlowLoop.thisRepN,SlowLoop.thisTrialN,SlowLoop.thisN,SlowLoop.thisIndex,SlowLoop.ran,Statement,Correct,encouragekey.rt,endstudykey.keys
space,10.9388,0,0,0,0,1,"You will be shown a total of 80 statements pertaining to mathematics, science, and social concepts. Your task is to determine whether each statement is true or false. Some statements will be difficult and some will be easier.  We do not expect you to know the correct answer for all 80 statements.  Press SPACE to Continue",2748,2022-04-06_18h57.22.027,ImplicitInfinitySC-SLOWTASK,2021.2.3,Win32,60.0024001,,,,,,,,,,,,,,,,,,,,,,,,,,,
space,9.7442,0,1,1,1,1,"We urge you to try your best and take your time. Each statement will appear on your screen and you will have 10 seconds to decide if it is true or false. You will hear a beep at 6 seconds that will prompt you to respond within the next 4 seconds. If you fail to respond within this time, the trial will be counted as incorrect and the next statement will appear. Press SPACE to continue",2748,2022-04-06_18h57.22.027,ImplicitInfinitySC-SLOWTASK,2021.2.3,Win32,60.0024001,,,,,,,,,,,,,,,,,,,,,,,,,,,
space,5.8561,0,2,2,2,1,"If the statement is true, you will press the “F” key on your keyboard with your left pointer finger; if the statement is false, you will press the “J” key on your keyboard with your right pointer finger. Press SPACE to continue",2748,2022-04-06_18h57.22.027,ImplicitInfinitySC-SLOWTASK,2021.2.3,Win32,60.0024001,,,,,,,,,,,,,,,,,,,,,,,,,,,
space,4.5348,0,3,3,3,1,Take your time and go slowly! You have 10 seconds to answer! Press SPACE to continue. ,2748,2022-04-06_18h57.22.027,ImplicitInfinitySC-SLOWTASK,2021.2.3,Win32,60.0024001,,,,,,,,,,,,,,,,,,,,,,,,,,,
,,,,,,,,2748,2022-04-06_18h57.22.027,ImplicitInfinitySC-SLOWTASK,2021.2.3,Win32,60.0024001,f,1,5.3184,space,1.2631,0,0,0,4,1,Humans cannot breathe water,f,,,,,,,,,,,,,,,
,,,,,,,,2748,2022-04-06_18h57.22.027,ImplicitInfinitySC-SLOWTASK,2021.2.3,Win32,60.0024001,j,1,3.4904,space,1.0669,0,1,1,8,1,Mississippi is a country,j,,,,,,,,,,,,,,,
,,,,,,,,2748,2022-04-06_18h57.22.027,ImplicitInfinitySC-SLOWTASK,2021.2.3,Win32,60.0024001,f,1,2.8033,space,1.8588,0,2,2,1,1,Dinosaurs are extinct,f,,,,,,,,,,,,,,,
,,,,,,,,2748,2022-04-06_18h57.22.027,ImplicitInfinitySC-SLOWTASK,2021.2.3,Win32,60.0024001,f,1,2.3133,space,0.9494,0,3,3,2,1,Magenta is a color,f,,,,,,,,,,,,,,,
,,,,,,,,2748,2022-04-06_18h57.22.027,ImplicitInfinitySC-SLOWTASK,2021.2.3,Win32,60.0024001,j,1,3.5066,space,1.4998,0,4,4,9,1,Humans cannot eat food,j,,,,,,,,,,,,,,,
,,,,,,,,2748,2022-04-06_18h57.22.027,ImplicitInfinitySC-SLOWTASK,2021.2.3,Win32,60.0024001,f,1,2.442,space,1.2067,0,5,5,0,1,A circle is a shape,f,,,,,,,,,,,,,,,
,,,,,,,,2748,2022-04-06_18h57.22.027,ImplicitInfinitySC-SLOWTASK,2021.2.3,Win32,60.0024001,j,1,2.4656,space,0.6554,0,6,6,6,1,Jupiter is the planet we live on,j,,,,,,,,,,,,,,,
,,,,,,,,2748,2022-04-06_18h57.22.027,ImplicitInfinitySC-SLOWTASK,2021.2.3,Win32,60.0024001,j,1,2.0194,space,0.4491,0,7,7,5,1,A truck is an animal,j,,,,,,,,,,,,,,,
,,,,,,,,2748,2022-04-06_18h57.22.027,ImplicitInfinitySC-SLOWTASK,2021.2.3,Win32,60.0024001,f,0,2.3802,space,0.6135,0,8,8,7,1,The Earth is a star,j,,,,,,,,,,,,,,,
,,,,,,,,2748,2022-04-06_18h57.22.027,ImplicitInfinitySC-SLOWTASK,2021.2.3,Win32,60.0024001,f,1,2.5357,space,0.7379,0,9,9,3,1,A clock is used to tell time,f,,,,,,,,,,,,,,,
,,,,,,,,2748,2022-04-06_18h57.22.027,ImplicitInfinitySC-SLOWTASK,2021.2.3,Win32,60.0024001,,,,space,1.7198,,,,,,,,space,31.0973,f,1,2.0665,,0,0,0,29,1,Space can go on forever,f,,
,,,,,,,,2748,2022-04-06_18h57.22.027,ImplicitInfinitySC-SLOWTASK,2021.2.3,Win32,60.0024001,,,,space,0.4372,,,,,,,,,,j,1,3.9659,,0,1,1,85,1,Thoughts are composed of matter,j,,
,,,,,,,,2748,2022-04-06_18h57.22.027,ImplicitInfinitySC-SLOWTASK,2021.2.3,Win32,60.0024001,,,,space,0.8512,,,,,,,,,,f,1,1.6511,,0,2,2,99,1,A motorcycle is a vehicle,f,,
,,,,,,,,2748,2022-04-06_18h57.22.027,ImplicitInfinitySC-SLOWTASK,2021.2.3,Win32,60.0024001,,,,space,0.7833,,,,,,,,,,f,1,3.3362,,0,3,3,42,1,The number five has an end,f,,
,,,,,,,,2748,2022-04-06_18h57.22.027,ImplicitInfinitySC-SLOWTASK,2021.2.3,Win32,60.0024001,,,,space,0.5159,,,,,,,,,,j,1,2.8199,,0,4,4,45,1,The number five can go on forever,j,,
,,,,,,,,2748,2022-04-06_18h57.22.027,ImplicitInfinitySC-SLOWTASK,2021.2.3,Win32,60.0024001,,,,space,0.2819,,,,,,,,,,j,1,2.1485,,0,5,5,125,1,There are ninty states in the United States,j,,
,,,,,,,,2748,2022-04-06_18h57.22.027,ImplicitInfinitySC-SLOWTASK,2021.2.3,Win32,60.0024001,,,,space,0.2507,,,,,,,,,,j,1,2.7796,,0,6,6,126,1,Humans can breathe water,j,,
,,,,,,,,2748,2022-04-06_18h57.22.027,ImplicitInfinitySC-SLOWTASK,2021.2.3,Win32,60.0024001,,,,space,1.0003,,,,,,,,,,j,1,3.8162,,0,7,7,30,1,Space cannot always be further divided,j,,
,,,,,,,,2748,2022-04-06_18h57.22.027,ImplicitInfinitySC-SLOWTASK,2021.2.3,Win32,60.0024001,,,,space,0.4997,,,,,,,,,,j,1,2.3077,,0,8,8,1,1,A minute is infinite,j,,
,,,,,,,,2748,2022-04-06_18h57.22.027,ImplicitInfinitySC-SLOWTASK,2021.2.3,Win32,60.0024001,,,,space,0.2525,,,,,,,,,,f,1,2.3698,,0,9,9,40,1,The number five is finite,f,,
,,,,,,,,2748,2022-04-06_18h57.22.027,ImplicitInfinitySC-SLOWTASK,2021.2.3,Win32,60.0024001,,,,space,0.2028,,,,,,,,,,j,1,1.8145,,0,10,10,58,1,Clocks are alive,j,,
,,,,,,,,2748,2022-04-06_18h57.22.027,ImplicitInfinitySC-SLOWTASK,2021.2.3,Win32,60.0024001,,,,space,0.347,,,,,,,,,,j,1,1.8676,,0,11,11,61,1,Sailboats reproduce,j,,
,,,,,,,,2748,2022-04-06_18h57.22.027,ImplicitInfinitySC-SLOWTASK,2021.2.3,Win32,60.0024001,,,,space,0.2844,,,,,,,,,,f,1,2.3316,,0,12,12,91,1,A circle is a shape,f,,
,,,,,,,,2748,2022-04-06_18h57.22.027,ImplicitInfinitySC-SLOWTASK,2021.2.3,Win32,60.0024001,,,,space,0.2954,,,,,,,,,,f,1,1.6725,,0,13,13,25,1,Space is infinite,f,,
,,,,,,,,2748,2022-04-06_18h57.22.027,ImplicitInfinitySC-SLOWTASK,2021.2.3,Win32,60.0024001,,,,space,0.4307,,,,,,,,,,j,1,2.1988,,0,14,14,18,1,Time has an end,j,,
,,,,,,,,2748,2022-04-06_18h57.22.027,ImplicitInfinitySC-SLOWTASK,2021.2.3,Win32,60.0024001,,,,space,0.2719,,,,,,,,,,f,1,3.1243,,0,15,15,102,1,The Earth is a planet,f,,
,,,,,,,,2748,2022-04-06_18h57.22.027,ImplicitInfinitySC-SLOWTASK,2021.2.3,Win32,60.0024001,,,,space,0.8681,,,,,,,,,,j,1,1.8006,,0,16,16,11,1,An inch is endless,j,,
,,,,,,,,2748,2022-04-06_18h57.22.027,ImplicitInfinitySC-SLOWTASK,2021.2.3,Win32,60.0024001,,,,space,0.58,,,,,,,,,,j,1,2.8192,,0,17,17,65,1,Shadows are composed of matter,j,,
,,,,,,,,2748,2022-04-06_18h57.22.027,ImplicitInfinitySC-SLOWTASK,2021.2.3,Win32,60.0024001,,,,space,0.2412,,,,,,,,,,f,1,1.2845,,0,18,18,49,1,Pelicans are alive,f,,
,,,,,,,,2748,2022-04-06_18h57.22.027,ImplicitInfinitySC-SLOWTASK,2021.2.3,Win32,60.0024001,,,,space,0.4867,,,,,,,,,,j,1,3.3658,,0,19,19,6,1,A minute cannot always be further divided,j,,
,,,,,,,,2748,2022-04-06_18h57.22.027,ImplicitInfinitySC-SLOWTASK,2021.2.3,Win32,60.0024001,,,,space,0.4987,,,,,,,,,,j,1,2.3377,,0,20,20,59,1,Comets are alive,j,,
,,,,,,,,2748,2022-04-06_18h57.22.027,ImplicitInfinitySC-SLOWTASK,2021.2.3,Win32,60.0024001,,,,space,0.2859,,,,,,,,,,f,1,1.9912,,0,21,21,2,1,A minute has an end,f,,
,,,,,,,,2748,2022-04-06_18h57.22.027,ImplicitInfinitySC-SLOWTASK,2021.2.3,Win32,60.0024001,,,,space,0.2832,,,,,,,,,,j,0,1.9155,,0,22,22,4,1,A minute cannot go on forever,f,,
,,,,,,,,2748,2022-04-06_18h57.22.027,ImplicitInfinitySC-SLOWTASK,2021.2.3,Win32,60.0024001,,,,space,0.2384,,,,,,,,,,j,1,2.1838,,0,23,23,111,1,A circle is a flavor,j,,
,,,,,,,,2748,2022-04-06_18h57.22.027,ImplicitInfinitySC-SLOWTASK,2021.2.3,Win32,60.0024001,,,,space,0.3012,,,,,,,,,,f,1,1.9866,,0,24,24,54,1,Dumbells are composed of matter,f,,
,,,,,,,,2748,2022-04-06_18h57.22.027,ImplicitInfinitySC-SLOWTASK,2021.2.3,Win32,60.0024001,,,,space,0.2882,,,,,,,,,,j,1,3.1669,,0,25,25,62,1,Helicopters reproduce,j,,
,,,,,,,,2748,2022-04-06_18h57.22.027,ImplicitInfinitySC-SLOWTASK,2021.2.3,Win32,60.0024001,,,,space,0.2614,,,,,,,,,,j,1,2.3978,,0,26,26,124,1,The president of the United States is Oprah,j,,
,,,,,,,,2748,2022-04-06_18h57.22.027,ImplicitInfinitySC-SLOWTASK,2021.2.3,Win32,60.0024001,,,,space,0.2711,,,,,,,,,,j,1,2.6473,,0,27,27,3,1,A minute is endless,j,,
,,,,,,,,2748,2022-04-06_18h57.22.027,ImplicitInfinitySC-SLOWTASK,2021.2.3,Win32,60.0024001,,,,space,0.3038,,,,,,,,,,f,1,2.0516,,0,28,28,77,1,Saliva has a molecular structure,f,,
,,,,,,,,2748,2022-04-06_18h57.22.027,ImplicitInfinitySC-SLOWTASK,2021.2.3,Win32,60.0024001,,,,space,0.4355,,,,,,,,,,f,1,1.0829,,0,29,29,92,1,Dinosaurs are extinct,f,,
,,,,,,,,2748,2022-04-06_18h57.22.027,ImplicitInfinitySC-SLOWTASK,2021.2.3,Win32,60.0024001,,,,space,0.2653,,,,,,,,,,j,1,3.4193,,0,30,30,14,1,An inch cannot always be further divided,j,,
,,,,,,,,2748,2022-04-06_18h57.22.027,ImplicitInfinitySC-SLOWTASK,2021.2.3,Win32,60.0024001,,,,space,0.2399,,,,,,,,,,j,1,1.6703,,0,31,31,115,1,Yellow is an animal,j,,
,,,,,,,,2748,2022-04-06_18h57.22.027,ImplicitInfinitySC-SLOWTASK,2021.2.3,Win32,60.0024001,,,,space,0.3348,,,,,,,,,,f,1,2.8724,,0,32,32,56,1,Diamonds have a molecular structure,f,,
,,,,,,,,2748,2022-04-06_18h57.22.027,ImplicitInfinitySC-SLOWTASK,2021.2.3,Win32,60.0024001,,,,space,0.2537,,,,,,,,,,j,1,2.0277,,0,33,33,16,1,Time is finite,j,,
,,,,,,,,2748,2022-04-06_18h57.22.027,ImplicitInfinitySC-SLOWTASK,2021.2.3,Win32,60.0024001,,,,space,0.567,,,,,,,,,,j,1,3.7795,,0,34,34,67,1,Gravity has a molecular structure,j,,
,,,,,,,,2748,2022-04-06_18h57.22.027,ImplicitInfinitySC-SLOWTASK,2021.2.3,Win32,60.0024001,,,,space,0.2779,,,,,,,,,,f,1,2.3516,,0,35,35,53,1,Bricks can be put in a container,f,,
,,,,,,,,2748,2022-04-06_18h57.22.027,ImplicitInfinitySC-SLOWTASK,2021.2.3,Win32,60.0024001,,,,space,0.2892,,,,,,,,,,j,0,2.3344,,0,36,36,33,1,Numbers are infinite,f,,
,,,,,,,,2748,2022-04-06_18h57.22.027,ImplicitInfinitySC-SLOWTASK,2021.2.3,Win32,60.0024001,,,,space,0.2153,,,,,,,,,,j,1,2.3197,,0,37,37,28,1,Space cannot go on forever,j,,
,,,,,,,,2748,2022-04-06_18h57.22.027,ImplicitInfinitySC-SLOWTASK,2021.2.3,Win32,60.0024001,,,,space,0.2298,,,,,,,,,,j,1,2.0152,,0,38,38,64,1,Echoes are composed of matter,j,,
,,,,,,,,2748,2022-04-06_18h57.22.027,ImplicitInfinitySC-SLOWTASK,2021.2.3,Win32,60.0024001,,,,space,0.3214,,,,,,,,,,f,1,1.6146,,0,39,39,101,1,Jupiter is in our solar system,f,,
,,,,,,,,2748,2022-04-06_18h57.22.027,ImplicitInfinitySC-SLOWTASK,2021.2.3,Win32,60.0024001,,,,space,2.0055,,,,,,,,,,f,1,1.8983,space,0,40,40,17,1,Time is infinite,f,3.5188,
,,,,,,,,2748,2022-04-06_18h57.22.027,ImplicitInfinitySC-SLOWTASK,2021.2.3,Win32,60.0024001,,,,space,0.3188,,,,,,,,,,f,1,3.3603,,0,41,41,75,1,Frost is composed of matter,f,,
,,,,,,,,2748,2022-04-06_18h57.22.027,ImplicitInfinitySC-SLOWTASK,2021.2.3,Win32,60.0024001,,,,space,0.2728,,,,,,,,,,f,1,1.8323,,0,42,42,47,1,The number five can always be further divided,f,,
,,,,,,,,2748,2022-04-06_18h57.22.027,ImplicitInfinitySC-SLOWTASK,2021.2.3,Win32,60.0024001,,,,space,0.2907,,,,,,,,,,f,1,1.7831,,0,43,43,97,1,Dolphins can swim in the ocean,f,,
,,,,,,,,2748,2022-04-06_18h57.22.027,ImplicitInfinitySC-SLOWTASK,2021.2.3,Win32,60.0024001,,,,space,0.2715,,,,,,,,,,j,1,1.8337,,0,44,44,123,1,Mississippi is a country,j,,
,,,,,,,,2748,2022-04-06_18h57.22.027,ImplicitInfinitySC-SLOWTASK,2021.2.3,Win32,60.0024001,,,,space,0.2553,,,,,,,,,,j,1,1.8448,,0,45,45,84,1,Silence is composed of matter,j,,
,,,,,,,,2748,2022-04-06_18h57.22.027,ImplicitInfinitySC-SLOWTASK,2021.2.3,Win32,60.0024001,,,,space,0.3479,,,,,,,,,,j,1,4.0027,,0,46,46,22,1,Time cannot always be further divided,j,,
,,,,,,,,2748,2022-04-06_18h57.22.027,ImplicitInfinitySC-SLOWTASK,2021.2.3,Win32,60.0024001,,,,space,0.2584,,,,,,,,,,f,1,2.4529,,0,47,47,44,1,The number five cannot go on forever,f,,
,,,,,,,,2748,2022-04-06_18h57.22.027,ImplicitInfinitySC-SLOWTASK,2021.2.3,Win32,60.0024001,,,,space,0.2928,,,,,,,,,,f,1,1.3702,,0,48,48,96,1,Fish can swim in the ocean,f,,
,,,,,,,,2748,2022-04-06_18h57.22.027,ImplicitInfinitySC-SLOWTASK,2021.2.3,Win32,60.0024001,,,,space,0.2681,,,,,,,,,,j,1,1.3072,,0,49,49,26,1,Space has an end,j,,
,,,,,,,,2748,2022-04-06_18h57.22.027,ImplicitInfinitySC-SLOWTASK,2021.2.3,Win32,60.0024001,,,,space,0.1632,,,,,,,,,,j,1,2.4025,,0,50,50,46,1,The number five cannot always be further divided,j,,
,,,,,,,,2748,2022-04-06_18h57.22.027,ImplicitInfinitySC-SLOWTASK,2021.2.3,Win32,60.0024001,,,,space,0.2333,,,,,,,,,,j,1,2.3168,,0,51,51,121,1,Jupiter is the planet we live on,j,,
,,,,,,,,2748,2022-04-06_18h57.22.027,ImplicitInfinitySC-SLOWTASK,2021.2.3,Win32,60.0024001,,,,space,0.2329,,,,,,,,,,j,1,1.9854,,0,52,52,114,1,Lightbulbs are made of clay,j,,
,,,,,,,,2748,2022-04-06_18h57.22.027,ImplicitInfinitySC-SLOWTASK,2021.2.3,Win32,60.0024001,,,,space,0.2085,,,,,,,,,,j,1,1.5023,,0,53,53,109,1,A square is a color,j,,
,,,,,,,,2748,2022-04-06_18h57.22.027,ImplicitInfinitySC-SLOWTASK,2021.2.3,Win32,60.0024001,,,,space,0.2245,,,,,,,,,,j,1,2.6239,,0,54,54,83,1,Songs can be put in a container,j,,
,,,,,,,,2748,2022-04-06_18h57.22.027,ImplicitInfinitySC-SLOWTASK,2021.2.3,Win32,60.0024001,,,,space,0.1851,,,,,,,,,,f,1,3.0696,,0,55,55,105,1,There are fifty states in the United States,f,,
,,,,,,,,2748,2022-04-06_18h57.22.027,ImplicitInfinitySC-SLOWTASK,2021.2.3,Win32,60.0024001,,,,space,0.5901,,,,,,,,,,f,1,3.5439,,0,56,56,103,1,The United States is a country,f,,
,,,,,,,,2748,2022-04-06_18h57.22.027,ImplicitInfinitySC-SLOWTASK,2021.2.3,Win32,60.0024001,,,,space,0.2888,,,,,,,,,,f,1,2.4352,,0,57,57,73,1,Bubbles can be put in a container,f,,
,,,,,,,,2748,2022-04-06_18h57.22.027,ImplicitInfinitySC-SLOWTASK,2021.2.3,Win32,60.0024001,,,,space,0.3022,,,,,,,,,,f,1,1.4998,,0,58,58,107,1,A pencil is used to write,f,,
,,,,,,,,2748,2022-04-06_18h57.22.027,ImplicitInfinitySC-SLOWTASK,2021.2.3,Win32,60.0024001,,,,space,0.2855,,,,,,,,,,f,1,1.1225,,0,59,59,94,1,Orange is a color,f,,
,,,,,,,,2748,2022-04-06_18h57.22.027,ImplicitInfinitySC-SLOWTASK,2021.2.3,Win32,60.0024001,,,,space,0.2031,,,,,,,,,,j,1,1.3517,,0,60,60,43,1,The number five is endless,j,,
,,,,,,,,2748,2022-04-06_18h57.22.027,ImplicitInfinitySC-SLOWTASK,2021.2.3,Win32,60.0024001,,,,space,0.2506,,,,,,,,,,j,1,1.6252,,0,61,61,116,1,Fish cannot swim in the ocean,j,,
,,,,,,,,2748,2022-04-06_18h57.22.027,ImplicitInfinitySC-SLOWTASK,2021.2.3,Win32,60.0024001,,,,space,0.3374,,,,,,,,,,f,1,1.7798,,0,62,62,104,1,The United States has a president,f,,
,,,,,,,,2748,2022-04-06_18h57.22.027,ImplicitInfinitySC-SLOWTASK,2021.2.3,Win32,60.0024001,,,,space,0.2392,,,,,,,,,,j,1,1.9414,,0,63,63,79,1,Forks are alive,j,,
,,,,,,,,2748,2022-04-06_18h57.22.027,ImplicitInfinitySC-SLOWTASK,2021.2.3,Win32,60.0024001,,,,space,0.5008,,,,,,,,,,f,0,3.5501,,0,64,64,122,1,The Earth is a star,j,,
,,,,,,,,2748,2022-04-06_18h57.22.027,ImplicitInfinitySC-SLOWTASK,2021.2.3,Win32,60.0024001,,,,space,0.303,,,,,,,,,,f,1,2.2338,,0,65,65,74,1,Foam is composed of matter,f,,
,,,,,,,,2748,2022-04-06_18h57.22.027,ImplicitInfinitySC-SLOWTASK,2021.2.3,Win32,60.0024001,,,,space,0.2826,,,,,,,,,,j,1,1.4737,,0,66,66,24,1,Space is finite,j,,
,,,,,,,,2748,2022-04-06_18h57.22.027,ImplicitInfinitySC-SLOWTASK,2021.2.3,Win32,60.0024001,,,,space,0.2905,,,,,,,,,,f,1,2.3509,,0,67,67,31,1,Space can always be further divided,f,,
,,,,,,,,2748,2022-04-06_18h57.22.027,ImplicitInfinitySC-SLOWTASK,2021.2.3,Win32,60.0024001,,,,space,0.2701,,,,,,,,,,j,1,2.384,,0,68,68,66,1,Music has a molecular structure,j,,
,,,,,,,,2748,2022-04-06_18h57.22.027,ImplicitInfinitySC-SLOWTASK,2021.2.3,Win32,60.0024001,,,,space,0.2433,,,,,,,,,,j,1,2.1837,,0,69,69,113,1,Magenta is a shape,j,,
,,,,,,,,2748,2022-04-06_18h57.22.027,ImplicitInfinitySC-SLOWTASK,2021.2.3,Win32,60.0024001,,,,space,0.2504,,,,,,,,,,f,1,2.0223,,0,70,70,15,1,An inch can be always further divided,f,,
,,,,,,,,2748,2022-04-06_18h57.22.027,ImplicitInfinitySC-SLOWTASK,2021.2.3,Win32,60.0024001,,,,space,0.2285,,,,,,,,,,j,1,1.4294,,0,71,71,78,1,Hammers are alive,j,,
,,,,,,,,2748,2022-04-06_18h57.22.027,ImplicitInfinitySC-SLOWTASK,2021.2.3,Win32,60.0024001,,,,space,0.2563,,,,,,,,,,j,0,2.7883,,0,72,72,35,1,Numbers are endless,f,,
,,,,,,,,2748,2022-04-06_18h57.22.027,ImplicitInfinitySC-SLOWTASK,2021.2.3,Win32,60.0024001,,,,space,0.7417,,,,,,,,,,j,0,4.0461,,0,73,73,72,1,Mushrooms reproduce,f,,
,,,,,,,,2748,2022-04-06_18h57.22.027,ImplicitInfinitySC-SLOWTASK,2021.2.3,Win32,60.0024001,,,,space,0.2532,,,,,,,,,,f,1,1.2877,,0,74,74,89,1,A square is a shape,f,,
,,,,,,,,2748,2022-04-06_18h57.22.027,ImplicitInfinitySC-SLOWTASK,2021.2.3,Win32,60.0024001,,,,space,0.2011,,,,,,,,,,j,1,1.3948,,0,75,75,5,1,A minute can go on forever,j,,
,,,,,,,,2748,2022-04-06_18h57.22.027,ImplicitInfinitySC-SLOWTASK,2021.2.3,Win32,60.0024001,,,,space,0.8673,,,,,,,,,,f,0,4.8468,,0,76,76,38,1,Numbers cannot always be further divided,j,,
,,,,,,,,2748,2022-04-06_18h57.22.027,ImplicitInfinitySC-SLOWTASK,2021.2.3,Win32,60.0024001,,,,space,0.2685,,,,,,,,,,j,1,1.7359,,0,77,77,41,1,The number five is infinite,j,,
,,,,,,,,2748,2022-04-06_18h57.22.027,ImplicitInfinitySC-SLOWTASK,2021.2.3,Win32,60.0024001,,,,space,0.261,,,,,,,,,,f,1,2.251,,0,78,78,10,1,An inch has an end,f,,
,,,,,,,,2748,2022-04-06_18h57.22.027,ImplicitInfinitySC-SLOWTASK,2021.2.3,Win32,60.0024001,,,,space,0.1927,,,,,,,,,,f,1,1.2186,,0,79,79,98,1,A clock is used to tell time,f,,
,,,,,,,,2748,2022-04-06_18h57.22.027,ImplicitInfinitySC-SLOWTASK,2021.2.3,Win32,60.0024001,,,,space,0.1878,,,,,,,,,,j,1,1.0841,,0,80,80,82,1,Stones reproduce,j,,
,,,,,,,,2748,2022-04-06_18h57.22.027,ImplicitInfinitySC-SLOWTASK,2021.2.3,Win32,60.0024001,,,,,,,,,,,,,,,,,,,,,,,,,,,
