SlowInstrKey.keys,SlowInstrKey.rt,SlowInstrLoop.thisRepN,SlowInstrLoop.thisTrialN,SlowInstrLoop.thisN,SlowInstrLoop.thisIndex,SlowInstrLoop.ran,SlowInstructions,participant,date,expName,psychopyVersion,OS,frameRate,key_resp_5.keys,key_resp_5.corr,key_resp_5.rt,key_resp_4.keys,slowpracticeloop.thisRepN,slowpracticeloop.thisTrialN,slowpracticeloop.thisN,slowpracticeloop.thisIndex,slowpracticeloop.ran,practicetext,practicecorrect,key_resp_4.rt,key_resp_3.keys,key_resp_3.rt,SlowKey.keys,SlowKey.corr,SlowKey.rt,encouragekey.keys,SlowLoop.thisRepN,SlowLoop.thisTrialN,SlowLoop.thisN,SlowLoop.thisIndex,SlowLoop.ran,Statement,Correct,encouragekey.rt,endstudykey.keys,endstudykey.rt
space,8.457,0,0,0,0,1,"You will be shown a total of 80 statements pertaining to mathematics, science, and social concepts. Your task is to determine whether each statement is true or false. Some statements will be difficult and some will be easier.  We do not expect you to know the correct answer for all 80 statements.  Press SPACE to Continue",3285,2022-04-06_18h06.42.048,ImplicitInfinitySC-SLOWTASK,2021.2.3,Win32,60.09615385,,,,,,,,,,,,,,,,,,,,,,,,,,,,
space,13.617,0,1,1,1,1,"We urge you to try your best and take your time. Each statement will appear on your screen and you will have 10 seconds to decide if it is true or false. You will hear a beep at 6 seconds that will prompt you to respond within the next 4 seconds. If you fail to respond within this time, the trial will be counted as incorrect and the next statement will appear. Press SPACE to continue",3285,2022-04-06_18h06.42.048,ImplicitInfinitySC-SLOWTASK,2021.2.3,Win32,60.09615385,,,,,,,,,,,,,,,,,,,,,,,,,,,,
space,6.723,0,2,2,2,1,"If the statement is true, you will press the “F” key on your keyboard with your left pointer finger; if the statement is false, you will press the “J” key on your keyboard with your right pointer finger. Press SPACE to continue",3285,2022-04-06_18h06.42.048,ImplicitInfinitySC-SLOWTASK,2021.2.3,Win32,60.09615385,,,,,,,,,,,,,,,,,,,,,,,,,,,,
space,0.857,0,3,3,3,1,Take your time and go slowly! You have 10 seconds to answer! Press SPACE to continue. ,3285,2022-04-06_18h06.42.048,ImplicitInfinitySC-SLOWTASK,2021.2.3,Win32,60.09615385,,,,,,,,,,,,,,,,,,,,,,,,,,,,
,,,,,,,,3285,2022-04-06_18h06.42.048,ImplicitInfinitySC-SLOWTASK,2021.2.3,Win32,60.09615385,j,1,1.307,,0,0,0,9,1,Humans cannot eat food,j,,,,,,,,,,,,,,,,,
,,,,,,,,3285,2022-04-06_18h06.42.048,ImplicitInfinitySC-SLOWTASK,2021.2.3,Win32,60.09615385,,0,,space,0,1,1,6,1,Jupiter is the planet we live on,j,6.267,,,,,,,,,,,,,,,,
,,,,,,,,3285,2022-04-06_18h06.42.048,ImplicitInfinitySC-SLOWTASK,2021.2.3,Win32,60.09615385,j,0,1.084,space,0,2,2,4,1,Humans cannot breathe water,f,1.019,,,,,,,,,,,,,,,,
,,,,,,,,3285,2022-04-06_18h06.42.048,ImplicitInfinitySC-SLOWTASK,2021.2.3,Win32,60.09615385,j,1,1.368,space,0,3,3,7,1,The Earth is a star,j,0.932,,,,,,,,,,,,,,,,
,,,,,,,,3285,2022-04-06_18h06.42.048,ImplicitInfinitySC-SLOWTASK,2021.2.3,Win32,60.09615385,f,1,1.55,space,0,4,4,0,1,A circle is a shape,f,2.101,,,,,,,,,,,,,,,,
,,,,,,,,3285,2022-04-06_18h06.42.048,ImplicitInfinitySC-SLOWTASK,2021.2.3,Win32,60.09615385,f,1,1.27,space,0,5,5,2,1,Magenta is a color,f,0.605,,,,,,,,,,,,,,,,
,,,,,,,,3285,2022-04-06_18h06.42.048,ImplicitInfinitySC-SLOWTASK,2021.2.3,Win32,60.09615385,j,1,1.574,space,0,6,6,5,1,A truck is an animal,j,0.681,,,,,,,,,,,,,,,,
,,,,,,,,3285,2022-04-06_18h06.42.048,ImplicitInfinitySC-SLOWTASK,2021.2.3,Win32,60.09615385,j,1,2.07,space,0,7,7,8,1,Mississippi is a country,j,0.618,,,,,,,,,,,,,,,,
,,,,,,,,3285,2022-04-06_18h06.42.048,ImplicitInfinitySC-SLOWTASK,2021.2.3,Win32,60.09615385,f,1,1.566,space,0,8,8,1,1,Dinosaurs are extinct,f,0.573,,,,,,,,,,,,,,,,
,,,,,,,,3285,2022-04-06_18h06.42.048,ImplicitInfinitySC-SLOWTASK,2021.2.3,Win32,60.09615385,f,1,1.373,space,0,9,9,3,1,A clock is used to tell time,f,0.456,,,,,,,,,,,,,,,,
,,,,,,,,3285,2022-04-06_18h06.42.048,ImplicitInfinitySC-SLOWTASK,2021.2.3,Win32,60.09615385,,,,space,,,,,,,,0.853,space,2.156,j,1,1.687,,0,0,0,126,1,Humans can breathe water,j,,,
,,,,,,,,3285,2022-04-06_18h06.42.048,ImplicitInfinitySC-SLOWTASK,2021.2.3,Win32,60.09615385,,,,space,,,,,,,,0.557,,,f,1,1.508,,0,1,1,33,1,Numbers are infinite,f,,,
,,,,,,,,3285,2022-04-06_18h06.42.048,ImplicitInfinitySC-SLOWTASK,2021.2.3,Win32,60.09615385,,,,space,,,,,,,,0.486,,,f,1,1.285,,0,2,2,48,1,Crocodiles are alive,f,,,
,,,,,,,,3285,2022-04-06_18h06.42.048,ImplicitInfinitySC-SLOWTASK,2021.2.3,Win32,60.09615385,,,,space,,,,,,,,0.497,,,j,0,2.349,,0,3,3,27,1,Space is endless,f,,,
,,,,,,,,3285,2022-04-06_18h06.42.048,ImplicitInfinitySC-SLOWTASK,2021.2.3,Win32,60.09615385,,,,space,,,,,,,,0.439,,,j,1,1.552,,0,4,4,116,1,Fish cannot swim in the ocean,j,,,
,,,,,,,,3285,2022-04-06_18h06.42.048,ImplicitInfinitySC-SLOWTASK,2021.2.3,Win32,60.09615385,,,,space,,,,,,,,0.603,,,f,0,4.329,,0,5,5,22,1,Time cannot always be further divided,j,,,
,,,,,,,,3285,2022-04-06_18h06.42.048,ImplicitInfinitySC-SLOWTASK,2021.2.3,Win32,60.09615385,,,,space,,,,,,,,2.205,,,j,1,4.213,,0,6,6,38,1,Numbers cannot always be further divided,j,,,
,,,,,,,,3285,2022-04-06_18h06.42.048,ImplicitInfinitySC-SLOWTASK,2021.2.3,Win32,60.09615385,,,,space,,,,,,,,0.484,,,f,1,1.603,,0,7,7,92,1,Dinosaurs are extinct,f,,,
,,,,,,,,3285,2022-04-06_18h06.42.048,ImplicitInfinitySC-SLOWTASK,2021.2.3,Win32,60.09615385,,,,space,,,,,,,,0.618,,,j,1,2.432,,0,8,8,64,1,Echoes are composed of matter,j,,,
,,,,,,,,3285,2022-04-06_18h06.42.048,ImplicitInfinitySC-SLOWTASK,2021.2.3,Win32,60.09615385,,,,space,,,,,,,,0.822,,,f,0,2.159,,0,9,9,16,1,Time is finite,j,,,
,,,,,,,,3285,2022-04-06_18h06.42.048,ImplicitInfinitySC-SLOWTASK,2021.2.3,Win32,60.09615385,,,,space,,,,,,,,0.663,,,j,1,2.779,,0,10,10,87,1,Dreams have a molecular structure,j,,,
,,,,,,,,3285,2022-04-06_18h06.42.048,ImplicitInfinitySC-SLOWTASK,2021.2.3,Win32,60.09615385,,,,space,,,,,,,,0.489,,,j,1,1.4,,0,11,11,3,1,A minute is endless,j,,,
,,,,,,,,3285,2022-04-06_18h06.42.048,ImplicitInfinitySC-SLOWTASK,2021.2.3,Win32,60.09615385,,,,space,,,,,,,,0.518,,,f,1,4.3,,0,12,12,17,1,Time is infinite,f,,,
,,,,,,,,3285,2022-04-06_18h06.42.048,ImplicitInfinitySC-SLOWTASK,2021.2.3,Win32,60.09615385,,,,space,,,,,,,,0.4,,,f,1,1.192,,0,13,13,88,1,This sentence is written in English,f,,,
,,,,,,,,3285,2022-04-06_18h06.42.048,ImplicitInfinitySC-SLOWTASK,2021.2.3,Win32,60.09615385,,,,space,,,,,,,,0.385,,,j,1,1.484,,0,14,14,61,1,Sailboats reproduce,j,,,
,,,,,,,,3285,2022-04-06_18h06.42.048,ImplicitInfinitySC-SLOWTASK,2021.2.3,Win32,60.09615385,,,,space,,,,,,,,0.289,,,j,1,1.133,,0,15,15,108,1,This sentence is written in Spanish,j,,,
,,,,,,,,3285,2022-04-06_18h06.42.048,ImplicitInfinitySC-SLOWTASK,2021.2.3,Win32,60.09615385,,,,space,,,,,,,,0.537,,,f,1,1.802,,0,16,16,35,1,Numbers are endless,f,,,
,,,,,,,,3285,2022-04-06_18h06.42.048,ImplicitInfinitySC-SLOWTASK,2021.2.3,Win32,60.09615385,,,,space,,,,,,,,0.253,,,f,1,1.182,,0,17,17,37,1,Numbers can go on forever,f,,,
,,,,,,,,3285,2022-04-06_18h06.42.048,ImplicitInfinitySC-SLOWTASK,2021.2.3,Win32,60.09615385,,,,space,,,,,,,,0.389,,,f,1,2.041,,0,18,18,8,1,An inch is finite,f,,,
,,,,,,,,3285,2022-04-06_18h06.42.048,ImplicitInfinitySC-SLOWTASK,2021.2.3,Win32,60.09615385,,,,space,,,,,,,,0.403,,,j,1,2.917,,0,19,19,127,1,A zebra is used to write,j,,,
,,,,,,,,3285,2022-04-06_18h06.42.048,ImplicitInfinitySC-SLOWTASK,2021.2.3,Win32,60.09615385,,,,space,,,,,,,,0.549,,,j,0,3.064,,0,20,20,71,1,Oaks reproduce,f,,,
,,,,,,,,3285,2022-04-06_18h06.42.048,ImplicitInfinitySC-SLOWTASK,2021.2.3,Win32,60.09615385,,,,space,,,,,,,,0.419,,,j,1,2.3,,0,21,21,110,1,A triangle is an animal,j,,,
,,,,,,,,3285,2022-04-06_18h06.42.048,ImplicitInfinitySC-SLOWTASK,2021.2.3,Win32,60.09615385,,,,space,,,,,,,,0.235,,,j,1,2.302,,0,22,22,18,1,Time has an end,j,,,
,,,,,,,,3285,2022-04-06_18h06.42.048,ImplicitInfinitySC-SLOWTASK,2021.2.3,Win32,60.09615385,,,,space,,,,,,,,0.754,,,f,1,1.225,,0,23,23,104,1,The United States has a president,f,,,
,,,,,,,,3285,2022-04-06_18h06.42.048,ImplicitInfinitySC-SLOWTASK,2021.2.3,Win32,60.09615385,,,,space,,,,,,,,1.803,,,f,1,2.868,,0,24,24,12,1,An inch cannot go on forever,f,,,
,,,,,,,,3285,2022-04-06_18h06.42.048,ImplicitInfinitySC-SLOWTASK,2021.2.3,Win32,60.09615385,,,,space,,,,,,,,0.701,,,j,0,1.333,,0,25,25,72,1,Mushrooms reproduce,f,,,
,,,,,,,,3285,2022-04-06_18h06.42.048,ImplicitInfinitySC-SLOWTASK,2021.2.3,Win32,60.09615385,,,,space,,,,,,,,0.406,,,f,1,1.616,,0,26,26,96,1,Fish can swim in the ocean,f,,,
,,,,,,,,3285,2022-04-06_18h06.42.048,ImplicitInfinitySC-SLOWTASK,2021.2.3,Win32,60.09615385,,,,space,,,,,,,,0.473,,,f,0,2.513,,0,27,27,28,1,Space cannot go on forever,j,,,
,,,,,,,,3285,2022-04-06_18h06.42.048,ImplicitInfinitySC-SLOWTASK,2021.2.3,Win32,60.09615385,,,,space,,,,,,,,0.505,,,j,1,2.682,,0,28,28,81,1,Tables reproduce,j,,,
,,,,,,,,3285,2022-04-06_18h06.42.048,ImplicitInfinitySC-SLOWTASK,2021.2.3,Win32,60.09615385,,,,space,,,,,,,,0.341,,,j,0,1.336,,0,29,29,2,1,A minute has an end,f,,,
,,,,,,,,3285,2022-04-06_18h06.42.048,ImplicitInfinitySC-SLOWTASK,2021.2.3,Win32,60.09615385,,,,space,,,,,,,,2.318,,,f,1,3.115,,0,30,30,42,1,The number five has an end,f,,,
,,,,,,,,3285,2022-04-06_18h06.42.048,ImplicitInfinitySC-SLOWTASK,2021.2.3,Win32,60.09615385,,,,space,,,,,,,,0.326,,,j,1,1.386,,0,31,31,117,1,Dolphins cannot swim in the ocean,j,,,
,,,,,,,,3285,2022-04-06_18h06.42.048,ImplicitInfinitySC-SLOWTASK,2021.2.3,Win32,60.09615385,,,,space,,,,,,,,0.336,,,f,1,1.667,,0,32,32,55,1,Concrete is composed of matter,f,,,
,,,,,,,,3285,2022-04-06_18h06.42.048,ImplicitInfinitySC-SLOWTASK,2021.2.3,Win32,60.09615385,,,,space,,,,,,,,0.436,,,j,1,3.065,,0,33,33,36,1,Numbers cannot go on forever,j,,,
,,,,,,,,3285,2022-04-06_18h06.42.048,ImplicitInfinitySC-SLOWTASK,2021.2.3,Win32,60.09615385,,,,space,,,,,,,,0.385,,,f,1,1.886,,0,34,34,39,1,Numbers can always be further divided,f,,,
,,,,,,,,3285,2022-04-06_18h06.42.048,ImplicitInfinitySC-SLOWTASK,2021.2.3,Win32,60.09615385,,,,space,,,,,,,,0.447,,,j,1,2.234,,0,35,35,11,1,An inch is endless,j,,,
,,,,,,,,3285,2022-04-06_18h06.42.048,ImplicitInfinitySC-SLOWTASK,2021.2.3,Win32,60.09615385,,,,space,,,,,,,,0.97,,,j,1,4.5,,0,36,36,30,1,Space cannot always be further divided,j,,,
,,,,,,,,3285,2022-04-06_18h06.42.048,ImplicitInfinitySC-SLOWTASK,2021.2.3,Win32,60.09615385,,,,space,,,,,,,,0.712,,,f,1,1.673,,0,37,37,19,1,Time is endless,f,,,
,,,,,,,,3285,2022-04-06_18h06.42.048,ImplicitInfinitySC-SLOWTASK,2021.2.3,Win32,60.09615385,,,,space,,,,,,,,0.544,,,f,1,1.437,,0,38,38,50,1,Turtles need nutrients,f,,,
,,,,,,,,3285,2022-04-06_18h06.42.048,ImplicitInfinitySC-SLOWTASK,2021.2.3,Win32,60.09615385,,,,space,,,,,,,,0.618,,,j,1,1.537,,0,39,39,58,1,Clocks are alive,j,,,
,,,,,,,,3285,2022-04-06_18h06.42.048,ImplicitInfinitySC-SLOWTASK,2021.2.3,Win32,60.09615385,,,,space,,,,,,,,0.653,,,f,1,1.033,space,0,40,40,69,1,Bacteria are alive,f,0.312,,
,,,,,,,,3285,2022-04-06_18h06.42.048,ImplicitInfinitySC-SLOWTASK,2021.2.3,Win32,60.09615385,,,,space,,,,,,,,0.508,,,f,1,1.705,,0,41,41,77,1,Saliva has a molecular structure,f,,,
,,,,,,,,3285,2022-04-06_18h06.42.048,ImplicitInfinitySC-SLOWTASK,2021.2.3,Win32,60.09615385,,,,space,,,,,,,,0.604,,,j,1,1.38,,0,42,42,60,1,Robots need nutrients,j,,,
,,,,,,,,3285,2022-04-06_18h06.42.048,ImplicitInfinitySC-SLOWTASK,2021.2.3,Win32,60.09615385,,,,space,,,,,,,,2.441,,,j,0,1.302,,0,43,43,90,1,A triangle is not an animal,f,,,
,,,,,,,,3285,2022-04-06_18h06.42.048,ImplicitInfinitySC-SLOWTASK,2021.2.3,Win32,60.09615385,,,,space,,,,,,,,0.704,,,j,1,2.303,,0,44,44,83,1,Songs can be put in a container,j,,,
,,,,,,,,3285,2022-04-06_18h06.42.048,ImplicitInfinitySC-SLOWTASK,2021.2.3,Win32,60.09615385,,,,space,,,,,,,,0.747,,,f,1,2.238,,0,45,45,53,1,Bricks can be put in a container,f,,,
,,,,,,,,3285,2022-04-06_18h06.42.048,ImplicitInfinitySC-SLOWTASK,2021.2.3,Win32,60.09615385,,,,space,,,,,,,,1.204,,,j,1,3.07,,0,46,46,14,1,An inch cannot always be further divided,j,,,
,,,,,,,,3285,2022-04-06_18h06.42.048,ImplicitInfinitySC-SLOWTASK,2021.2.3,Win32,60.09615385,,,,space,,,,,,,,0.576,,,j,1,1.52,,0,47,47,114,1,Lightbulbs are made of clay,j,,,
,,,,,,,,3285,2022-04-06_18h06.42.048,ImplicitInfinitySC-SLOWTASK,2021.2.3,Win32,60.09615385,,,,space,,,,,,,,0.555,,,j,1,2.768,,0,48,48,46,1,The number five cannot always be further divided,j,,,
,,,,,,,,3285,2022-04-06_18h06.42.048,ImplicitInfinitySC-SLOWTASK,2021.2.3,Win32,60.09615385,,,,space,,,,,,,,0.5,,,f,1,2.257,,0,49,49,75,1,Frost is composed of matter,f,,,
,,,,,,,,3285,2022-04-06_18h06.42.048,ImplicitInfinitySC-SLOWTASK,2021.2.3,Win32,60.09615385,,,,space,,,,,,,,0.507,,,j,1,1.282,,0,50,50,13,1,An inch can go on forever,j,,,
,,,,,,,,3285,2022-04-06_18h06.42.048,ImplicitInfinitySC-SLOWTASK,2021.2.3,Win32,60.09615385,,,,space,,,,,,,,1.978,,,j,0,3.218,,0,51,51,40,1,The number five is finite,f,,,
,,,,,,,,3285,2022-04-06_18h06.42.048,ImplicitInfinitySC-SLOWTASK,2021.2.3,Win32,60.09615385,,,,space,,,,,,,,0.489,,,f,1,3.813,,0,52,52,31,1,Space can always be further divided,f,,,
,,,,,,,,3285,2022-04-06_18h06.42.048,ImplicitInfinitySC-SLOWTASK,2021.2.3,Win32,60.09615385,,,,space,,,,,,,,0.368,,,f,1,2.487,,0,53,53,99,1,A motorcycle is a vehicle,f,,,
,,,,,,,,3285,2022-04-06_18h06.42.048,ImplicitInfinitySC-SLOWTASK,2021.2.3,Win32,60.09615385,,,,space,,,,,,,,0.362,,,f,1,1.15,,0,54,54,98,1,A clock is used to tell time,f,,,
,,,,,,,,3285,2022-04-06_18h06.42.048,ImplicitInfinitySC-SLOWTASK,2021.2.3,Win32,60.09615385,,,,space,,,,,,,,0.541,,,f,1,2.014,,0,55,55,0,1,A minute is finite,f,,,
,,,,,,,,3285,2022-04-06_18h06.42.048,ImplicitInfinitySC-SLOWTASK,2021.2.3,Win32,60.09615385,,,,space,,,,,,,,0.289,,,f,1,1.376,,0,56,56,10,1,An inch has an end,f,,,
,,,,,,,,3285,2022-04-06_18h06.42.048,ImplicitInfinitySC-SLOWTASK,2021.2.3,Win32,60.09615385,,,,space,,,,,,,,0.422,,,j,1,1.286,,0,57,57,113,1,Magenta is a shape,j,,,
,,,,,,,,3285,2022-04-06_18h06.42.048,ImplicitInfinitySC-SLOWTASK,2021.2.3,Win32,60.09615385,,,,space,,,,,,,,1.953,,,f,0,1.354,,0,58,58,80,1,Mittens need nutrients,j,,,
,,,,,,,,3285,2022-04-06_18h06.42.048,ImplicitInfinitySC-SLOWTASK,2021.2.3,Win32,60.09615385,,,,space,,,,,,,,0.606,,,j,0,1.621,,0,59,59,4,1,A minute cannot go on forever,f,,,
,,,,,,,,3285,2022-04-06_18h06.42.048,ImplicitInfinitySC-SLOWTASK,2021.2.3,Win32,60.09615385,,,,space,,,,,,,,0.342,,,f,1,1.093,,0,60,60,68,1,Algae is alive,f,,,
,,,,,,,,3285,2022-04-06_18h06.42.048,ImplicitInfinitySC-SLOWTASK,2021.2.3,Win32,60.09615385,,,,space,,,,,,,,0.507,,,j,1,3.814,,0,61,61,121,1,Jupiter is the planet we live on,j,,,
,,,,,,,,3285,2022-04-06_18h06.42.048,ImplicitInfinitySC-SLOWTASK,2021.2.3,Win32,60.09615385,,,,space,,,,,,,,0.508,,,f,1,1.24,,0,62,62,56,1,Diamonds have a molecular structure,f,,,
,,,,,,,,3285,2022-04-06_18h06.42.048,ImplicitInfinitySC-SLOWTASK,2021.2.3,Win32,60.09615385,,,,space,,,,,,,,0.39,,,j,1,4.175,,0,63,63,34,1,Numbers have an end,j,,,
,,,,,,,,3285,2022-04-06_18h06.42.048,ImplicitInfinitySC-SLOWTASK,2021.2.3,Win32,60.09615385,,,,space,,,,,,,,0.425,,,f,0,2.02,,0,64,64,24,1,Space is finite,j,,,
,,,,,,,,3285,2022-04-06_18h06.42.048,ImplicitInfinitySC-SLOWTASK,2021.2.3,Win32,60.09615385,,,,space,,,,,,,,0.278,,,f,1,1.146,,0,65,65,102,1,The Earth is a planet,f,,,
,,,,,,,,3285,2022-04-06_18h06.42.048,ImplicitInfinitySC-SLOWTASK,2021.2.3,Win32,60.09615385,,,,space,,,,,,,,0.372,,,j,1,2.416,,0,66,66,59,1,Comets are alive,j,,,
,,,,,,,,3285,2022-04-06_18h06.42.048,ImplicitInfinitySC-SLOWTASK,2021.2.3,Win32,60.09615385,,,,space,,,,,,,,0.344,,,f,1,1.136,,0,67,67,57,1,Rocks have a molecular structure,f,,,
,,,,,,,,3285,2022-04-06_18h06.42.048,ImplicitInfinitySC-SLOWTASK,2021.2.3,Win32,60.09615385,,,,space,,,,,,,,0.437,,,j,1,1.75,,0,68,68,65,1,Shadows are composed of matter,j,,,
,,,,,,,,3285,2022-04-06_18h06.42.048,ImplicitInfinitySC-SLOWTASK,2021.2.3,Win32,60.09615385,,,,space,,,,,,,,0.571,,,j,1,3.517,,0,69,69,63,1,Color can be put in a container,j,,,
,,,,,,,,3285,2022-04-06_18h06.42.048,ImplicitInfinitySC-SLOWTASK,2021.2.3,Win32,60.09615385,,,,space,,,,,,,,0.539,,,j,1,2.509,,0,70,70,84,1,Silence is composed of matter,j,,,
,,,,,,,,3285,2022-04-06_18h06.42.048,ImplicitInfinitySC-SLOWTASK,2021.2.3,Win32,60.09615385,,,,space,,,,,,,,0.338,,,f,1,0.877,,0,71,71,49,1,Pelicans are alive,f,,,
,,,,,,,,3285,2022-04-06_18h06.42.048,ImplicitInfinitySC-SLOWTASK,2021.2.3,Win32,60.09615385,,,,space,,,,,,,,0.871,,,j,1,6.28,,0,72,72,86,1,Words have a molecular structure,j,,,
,,,,,,,,3285,2022-04-06_18h06.42.048,ImplicitInfinitySC-SLOWTASK,2021.2.3,Win32,60.09615385,,,,space,,,,,,,,0.635,,,j,1,2.574,,0,73,73,1,1,A minute is infinite,j,,,
,,,,,,,,3285,2022-04-06_18h06.42.048,ImplicitInfinitySC-SLOWTASK,2021.2.3,Win32,60.09615385,,,,space,,,,,,,,0.305,,,j,1,1.765,,0,74,74,45,1,The number five can go on forever,j,,,
,,,,,,,,3285,2022-04-06_18h06.42.048,ImplicitInfinitySC-SLOWTASK,2021.2.3,Win32,60.09615385,,,,space,,,,,,,,0.482,,,f,0,2.978,,0,75,75,66,1,Music has a molecular structure,j,,,
,,,,,,,,3285,2022-04-06_18h06.42.048,ImplicitInfinitySC-SLOWTASK,2021.2.3,Win32,60.09615385,,,,space,,,,,,,,0.334,,,f,1,1.582,,0,76,76,101,1,Jupiter is in our solar system,f,,,
,,,,,,,,3285,2022-04-06_18h06.42.048,ImplicitInfinitySC-SLOWTASK,2021.2.3,Win32,60.09615385,,,,space,,,,,,,,0.319,,,f,0,1.834,,0,77,77,67,1,Gravity has a molecular structure,j,,,
,,,,,,,,3285,2022-04-06_18h06.42.048,ImplicitInfinitySC-SLOWTASK,2021.2.3,Win32,60.09615385,,,,space,,,,,,,,0.486,,,j,1,2.43,,0,78,78,115,1,Yellow is an animal,j,,,
,,,,,,,,3285,2022-04-06_18h06.42.048,ImplicitInfinitySC-SLOWTASK,2021.2.3,Win32,60.09615385,,,,space,,,,,,,,0.374,,,f,1,1.401,,0,79,79,97,1,Dolphins can swim in the ocean,f,,,
,,,,,,,,3285,2022-04-06_18h06.42.048,ImplicitInfinitySC-SLOWTASK,2021.2.3,Win32,60.09615385,,,,space,,,,,,,,1.015,,,j,0,1.965,,0,80,80,7,1,A minute can always be further divided,f,,,
,,,,,,,,3285,2022-04-06_18h06.42.048,ImplicitInfinitySC-SLOWTASK,2021.2.3,Win32,60.09615385,,,,,,,,,,,,,,,,,,,,,,,,,,,space,5.199
