SlowInstrKey.keys,SlowInstrKey.rt,SlowInstrLoop.thisRepN,SlowInstrLoop.thisTrialN,SlowInstrLoop.thisN,SlowInstrLoop.thisIndex,SlowInstrLoop.ran,SlowInstructions,participant,date,expName,psychopyVersion,OS,frameRate,key_resp_5.keys,key_resp_5.corr,key_resp_5.rt,key_resp_4.keys,key_resp_4.rt,slowpracticeloop.thisRepN,slowpracticeloop.thisTrialN,slowpracticeloop.thisN,slowpracticeloop.thisIndex,slowpracticeloop.ran,practicetext,practicecorrect,key_resp_3.keys,key_resp_3.rt,SlowKey.keys,SlowKey.corr,SlowKey.rt,encouragekey.keys,SlowLoop.thisRepN,SlowLoop.thisTrialN,SlowLoop.thisN,SlowLoop.thisIndex,SlowLoop.ran,Statement,Correct,encouragekey.rt,endstudykey.keys,endstudykey.rt
space,7.9388,0,0,0,0,1,"You will be shown a total of 80 statements pertaining to mathematics, science, and social concepts. Your task is to determine whether each statement is true or false. Some statements will be difficult and some will be easier.  We do not expect you to know the correct answer for all 80 statements.  Press SPACE to Continue",3488,2022-04-06_18h05.22.324,ImplicitInfinitySC-SLOWTASK,2021.2.3,Win32,60.0240096,,,,,,,,,,,,,,,,,,,,,,,,,,,,
space,13.8163,0,1,1,1,1,"We urge you to try your best and take your time. Each statement will appear on your screen and you will have 10 seconds to decide if it is true or false. You will hear a beep at 6 seconds that will prompt you to respond within the next 4 seconds. If you fail to respond within this time, the trial will be counted as incorrect and the next statement will appear. Press SPACE to continue",3488,2022-04-06_18h05.22.324,ImplicitInfinitySC-SLOWTASK,2021.2.3,Win32,60.0240096,,,,,,,,,,,,,,,,,,,,,,,,,,,,
space,15.5466,0,2,2,2,1,"If the statement is true, you will press the “F” key on your keyboard with your left pointer finger; if the statement is false, you will press the “J” key on your keyboard with your right pointer finger. Press SPACE to continue",3488,2022-04-06_18h05.22.324,ImplicitInfinitySC-SLOWTASK,2021.2.3,Win32,60.0240096,,,,,,,,,,,,,,,,,,,,,,,,,,,,
space,2.9517,0,3,3,3,1,Take your time and go slowly! You have 10 seconds to answer! Press SPACE to continue. ,3488,2022-04-06_18h05.22.324,ImplicitInfinitySC-SLOWTASK,2021.2.3,Win32,60.0240096,,,,,,,,,,,,,,,,,,,,,,,,,,,,
,,,,,,,,3488,2022-04-06_18h05.22.324,ImplicitInfinitySC-SLOWTASK,2021.2.3,Win32,60.0240096,f,1,2.7838,space,1.6333,0,0,0,3,1,A clock is used to tell time,f,,,,,,,,,,,,,,,,
,,,,,,,,3488,2022-04-06_18h05.22.324,ImplicitInfinitySC-SLOWTASK,2021.2.3,Win32,60.0240096,j,1,1.7171,space,0.9752,0,1,1,5,1,A truck is an animal,j,,,,,,,,,,,,,,,,
,,,,,,,,3488,2022-04-06_18h05.22.324,ImplicitInfinitySC-SLOWTASK,2021.2.3,Win32,60.0240096,f,1,3.2398,space,0.6602,0,2,2,0,1,A circle is a shape,f,,,,,,,,,,,,,,,,
,,,,,,,,3488,2022-04-06_18h05.22.324,ImplicitInfinitySC-SLOWTASK,2021.2.3,Win32,60.0240096,f,1,1.4331,space,0.6504,0,3,3,2,1,Magenta is a color,f,,,,,,,,,,,,,,,,
,,,,,,,,3488,2022-04-06_18h05.22.324,ImplicitInfinitySC-SLOWTASK,2021.2.3,Win32,60.0240096,j,1,2.1334,space,0.7695,0,4,4,6,1,Jupiter is the planet we live on,j,,,,,,,,,,,,,,,,
,,,,,,,,3488,2022-04-06_18h05.22.324,ImplicitInfinitySC-SLOWTASK,2021.2.3,Win32,60.0240096,f,1,2.4502,space,1.0835,0,5,5,4,1,Humans cannot breathe water,f,,,,,,,,,,,,,,,,
,,,,,,,,3488,2022-04-06_18h05.22.324,ImplicitInfinitySC-SLOWTASK,2021.2.3,Win32,60.0240096,f,1,1.5499,space,0.7003,0,6,6,1,1,Dinosaurs are extinct,f,,,,,,,,,,,,,,,,
,,,,,,,,3488,2022-04-06_18h05.22.324,ImplicitInfinitySC-SLOWTASK,2021.2.3,Win32,60.0240096,j,1,1.8549,space,0.8679,0,7,7,8,1,Mississippi is a country,j,,,,,,,,,,,,,,,,
,,,,,,,,3488,2022-04-06_18h05.22.324,ImplicitInfinitySC-SLOWTASK,2021.2.3,Win32,60.0240096,f,0,1.8669,space,0.7502,0,8,8,7,1,The Earth is a star,j,,,,,,,,,,,,,,,,
,,,,,,,,3488,2022-04-06_18h05.22.324,ImplicitInfinitySC-SLOWTASK,2021.2.3,Win32,60.0240096,j,1,3.1329,space,0.701,0,9,9,9,1,Humans cannot eat food,j,,,,,,,,,,,,,,,,
,,,,,,,,3488,2022-04-06_18h05.22.324,ImplicitInfinitySC-SLOWTASK,2021.2.3,Win32,60.0240096,,,,space,1.3007,,,,,,,,space,4.9674,j,0,3.8135,,0,0,0,44,1,The number five cannot go on forever,f,,,
,,,,,,,,3488,2022-04-06_18h05.22.324,ImplicitInfinitySC-SLOWTASK,2021.2.3,Win32,60.0240096,,,,space,0.6009,,,,,,,,,,f,1,1.3682,,0,1,1,99,1,A motorcycle is a vehicle,f,,,
,,,,,,,,3488,2022-04-06_18h05.22.324,ImplicitInfinitySC-SLOWTASK,2021.2.3,Win32,60.0240096,,,,space,0.7111,,,,,,,,,,f,1,1.6183,,0,2,2,94,1,Orange is a color,f,,,
,,,,,,,,3488,2022-04-06_18h05.22.324,ImplicitInfinitySC-SLOWTASK,2021.2.3,Win32,60.0240096,,,,space,0.6333,,,,,,,,,,f,1,2.7001,,0,3,3,15,1,An inch can be always further divided,f,,,
,,,,,,,,3488,2022-04-06_18h05.22.324,ImplicitInfinitySC-SLOWTASK,2021.2.3,Win32,60.0240096,,,,space,0.7341,,,,,,,,,,f,1,2.1238,,0,4,4,0,1,A minute is finite,f,,,
,,,,,,,,3488,2022-04-06_18h05.22.324,ImplicitInfinitySC-SLOWTASK,2021.2.3,Win32,60.0240096,,,,space,0.5522,,,,,,,,,,f,1,2.3466,,0,5,5,54,1,Dumbells are composed of matter,f,,,
,,,,,,,,3488,2022-04-06_18h05.22.324,ImplicitInfinitySC-SLOWTASK,2021.2.3,Win32,60.0240096,,,,space,0.5686,,,,,,,,,,j,1,1.967,,0,6,6,18,1,Time has an end,j,,,
,,,,,,,,3488,2022-04-06_18h05.22.324,ImplicitInfinitySC-SLOWTASK,2021.2.3,Win32,60.0240096,,,,space,1.5043,,,,,,,,,,f,0,1.8173,,0,7,7,3,1,A minute is endless,j,,,
,,,,,,,,3488,2022-04-06_18h05.22.324,ImplicitInfinitySC-SLOWTASK,2021.2.3,Win32,60.0240096,,,,space,0.5895,,,,,,,,,,j,1,3.6039,,0,8,8,65,1,Shadows are composed of matter,j,,,
,,,,,,,,3488,2022-04-06_18h05.22.324,ImplicitInfinitySC-SLOWTASK,2021.2.3,Win32,60.0240096,,,,space,0.5204,,,,,,,,,,j,1,2.0496,,0,9,9,125,1,There are ninty states in the United States,j,,,
,,,,,,,,3488,2022-04-06_18h05.22.324,ImplicitInfinitySC-SLOWTASK,2021.2.3,Win32,60.0240096,,,,space,0.6744,,,,,,,,,,f,1,3.9998,,0,10,10,4,1,A minute cannot go on forever,f,,,
,,,,,,,,3488,2022-04-06_18h05.22.324,ImplicitInfinitySC-SLOWTASK,2021.2.3,Win32,60.0240096,,,,space,0.6021,,,,,,,,,,j,1,1.9503,,0,11,11,20,1,Time cannot go on forever,j,,,
,,,,,,,,3488,2022-04-06_18h05.22.324,ImplicitInfinitySC-SLOWTASK,2021.2.3,Win32,60.0240096,,,,space,0.6333,,,,,,,,,,j,1,2.9182,,0,12,12,108,1,This sentence is written in Spanish,j,,,
,,,,,,,,3488,2022-04-06_18h05.22.324,ImplicitInfinitySC-SLOWTASK,2021.2.3,Win32,60.0240096,,,,space,0.8244,,,,,,,,,,f,1,2.5614,,0,13,13,49,1,Pelicans are alive,f,,,
,,,,,,,,3488,2022-04-06_18h05.22.324,ImplicitInfinitySC-SLOWTASK,2021.2.3,Win32,60.0240096,,,,space,0.6003,,,,,,,,,,f,1,2.2015,,0,14,14,51,1,Tigers reproduce,f,,,
,,,,,,,,3488,2022-04-06_18h05.22.324,ImplicitInfinitySC-SLOWTASK,2021.2.3,Win32,60.0240096,,,,space,0.6506,,,,,,,,,,j,1,2.7005,,0,15,15,66,1,Music has a molecular structure,j,,,
,,,,,,,,3488,2022-04-06_18h05.22.324,ImplicitInfinitySC-SLOWTASK,2021.2.3,Win32,60.0240096,,,,space,1.202,,,,,,,,,,f,0,2.4338,,0,16,16,80,1,Mittens need nutrients,j,,,
,,,,,,,,3488,2022-04-06_18h05.22.324,ImplicitInfinitySC-SLOWTASK,2021.2.3,Win32,60.0240096,,,,space,0.601,,,,,,,,,,f,1,1.6011,,0,17,17,107,1,A pencil is used to write,f,,,
,,,,,,,,3488,2022-04-06_18h05.22.324,ImplicitInfinitySC-SLOWTASK,2021.2.3,Win32,60.0240096,,,,space,0.6521,,,,,,,,,,j,1,2.2165,,0,18,18,5,1,A minute can go on forever,j,,,
,,,,,,,,3488,2022-04-06_18h05.22.324,ImplicitInfinitySC-SLOWTASK,2021.2.3,Win32,60.0240096,,,,space,0.5018,,,,,,,,,,j,1,1.9792,,0,19,19,24,1,Space is finite,j,,,
,,,,,,,,3488,2022-04-06_18h05.22.324,ImplicitInfinitySC-SLOWTASK,2021.2.3,Win32,60.0240096,,,,space,0.7673,,,,,,,,,,f,1,2.1502,,0,20,20,50,1,Turtles need nutrients,f,,,
,,,,,,,,3488,2022-04-06_18h05.22.324,ImplicitInfinitySC-SLOWTASK,2021.2.3,Win32,60.0240096,,,,space,0.485,,,,,,,,,,f,1,2.2499,,0,21,21,55,1,Concrete is composed of matter,f,,,
,,,,,,,,3488,2022-04-06_18h05.22.324,ImplicitInfinitySC-SLOWTASK,2021.2.3,Win32,60.0240096,,,,space,0.6506,,,,,,,,,,f,1,1.4156,,0,22,22,102,1,The Earth is a planet,f,,,
,,,,,,,,3488,2022-04-06_18h05.22.324,ImplicitInfinitySC-SLOWTASK,2021.2.3,Win32,60.0240096,,,,space,0.6174,,,,,,,,,,f,1,2.1669,,0,23,23,69,1,Bacteria are alive,f,,,
,,,,,,,,3488,2022-04-06_18h05.22.324,ImplicitInfinitySC-SLOWTASK,2021.2.3,Win32,60.0240096,,,,space,0.752,,,,,,,,,,f,1,3.6838,,0,24,24,19,1,Time is endless,f,,,
,,,,,,,,3488,2022-04-06_18h05.22.324,ImplicitInfinitySC-SLOWTASK,2021.2.3,Win32,60.0240096,,,,space,0.787,,,,,,,,,,f,1,3.0494,,0,25,25,40,1,The number five is finite,f,,,
,,,,,,,,3488,2022-04-06_18h05.22.324,ImplicitInfinitySC-SLOWTASK,2021.2.3,Win32,60.0240096,,,,space,0.8134,,,,,,,,,,f,1,2.4573,,0,26,26,37,1,Numbers can go on forever,f,,,
,,,,,,,,3488,2022-04-06_18h05.22.324,ImplicitInfinitySC-SLOWTASK,2021.2.3,Win32,60.0240096,,,,space,0.5872,,,,,,,,,,f,1,3.5173,,0,27,27,39,1,Numbers can always be further divided,f,,,
,,,,,,,,3488,2022-04-06_18h05.22.324,ImplicitInfinitySC-SLOWTASK,2021.2.3,Win32,60.0240096,,,,space,0.5181,,,,,,,,,,f,1,2.1164,,0,28,28,97,1,Dolphins can swim in the ocean,f,,,
,,,,,,,,3488,2022-04-06_18h05.22.324,ImplicitInfinitySC-SLOWTASK,2021.2.3,Win32,60.0240096,,,,space,0.8035,,,,,,,,,,j,0,3.2845,,0,29,29,72,1,Mushrooms reproduce,f,,,
,,,,,,,,3488,2022-04-06_18h05.22.324,ImplicitInfinitySC-SLOWTASK,2021.2.3,Win32,60.0240096,,,,space,0.5674,,,,,,,,,,j,1,3.0186,,0,30,30,117,1,Dolphins cannot swim in the ocean,j,,,
,,,,,,,,3488,2022-04-06_18h05.22.324,ImplicitInfinitySC-SLOWTASK,2021.2.3,Win32,60.0240096,,,,space,0.6831,,,,,,,,,,f,1,1.2674,,0,31,31,48,1,Crocodiles are alive,f,,,
,,,,,,,,3488,2022-04-06_18h05.22.324,ImplicitInfinitySC-SLOWTASK,2021.2.3,Win32,60.0240096,,,,space,0.6319,,,,,,,,,,j,1,1.5024,,0,32,32,81,1,Tables reproduce,j,,,
,,,,,,,,3488,2022-04-06_18h05.22.324,ImplicitInfinitySC-SLOWTASK,2021.2.3,Win32,60.0240096,,,,space,0.471,,,,,,,,,,j,1,1.6004,,0,33,33,121,1,Jupiter is the planet we live on,j,,,
,,,,,,,,3488,2022-04-06_18h05.22.324,ImplicitInfinitySC-SLOWTASK,2021.2.3,Win32,60.0240096,,,,space,0.6337,,,,,,,,,,f,1,1.4007,,0,34,34,70,1,Grass needs nutrients,f,,,
,,,,,,,,3488,2022-04-06_18h05.22.324,ImplicitInfinitySC-SLOWTASK,2021.2.3,Win32,60.0240096,,,,space,0.9087,,,,,,,,,,j,1,2.4511,,0,35,35,127,1,A zebra is used to write,j,,,
,,,,,,,,3488,2022-04-06_18h05.22.324,ImplicitInfinitySC-SLOWTASK,2021.2.3,Win32,60.0240096,,,,space,0.4689,,,,,,,,,,j,1,1.7006,,0,36,36,120,1,A truck is an animal,j,,,
,,,,,,,,3488,2022-04-06_18h05.22.324,ImplicitInfinitySC-SLOWTASK,2021.2.3,Win32,60.0240096,,,,space,1.1141,,,,,,,,,,f,1,2.3644,,0,37,37,74,1,Foam is composed of matter,f,,,
,,,,,,,,3488,2022-04-06_18h05.22.324,ImplicitInfinitySC-SLOWTASK,2021.2.3,Win32,60.0240096,,,,space,0.5504,,,,,,,,,,j,1,1.5008,,0,38,38,26,1,Space has an end,j,,,
,,,,,,,,3488,2022-04-06_18h05.22.324,ImplicitInfinitySC-SLOWTASK,2021.2.3,Win32,60.0240096,,,,space,0.5189,,,,,,,,,,f,1,1.8496,,0,39,39,12,1,An inch cannot go on forever,f,,,
,,,,,,,,3488,2022-04-06_18h05.22.324,ImplicitInfinitySC-SLOWTASK,2021.2.3,Win32,60.0240096,,,,space,1.357,,,,,,,,,,j,1,2.2335,space,0,40,40,13,1,An inch can go on forever,j,4.2991,,
,,,,,,,,3488,2022-04-06_18h05.22.324,ImplicitInfinitySC-SLOWTASK,2021.2.3,Win32,60.0240096,,,,space,0.4693,,,,,,,,,,j,1,2.5816,,0,41,41,43,1,The number five is endless,j,,,
,,,,,,,,3488,2022-04-06_18h05.22.324,ImplicitInfinitySC-SLOWTASK,2021.2.3,Win32,60.0240096,,,,space,0.7839,,,,,,,,,,f,1,1.5507,,0,42,42,68,1,Algae is alive,f,,,
,,,,,,,,3488,2022-04-06_18h05.22.324,ImplicitInfinitySC-SLOWTASK,2021.2.3,Win32,60.0240096,,,,space,0.5139,,,,,,,,,,j,1,2.9749,,0,43,43,22,1,Time cannot always be further divided,j,,,
,,,,,,,,3488,2022-04-06_18h05.22.324,ImplicitInfinitySC-SLOWTASK,2021.2.3,Win32,60.0240096,,,,space,0.484,,,,,,,,,,j,1,1.6143,,0,44,44,79,1,Forks are alive,j,,,
,,,,,,,,3488,2022-04-06_18h05.22.324,ImplicitInfinitySC-SLOWTASK,2021.2.3,Win32,60.0240096,,,,space,0.5173,,,,,,,,,,j,1,2.2982,,0,45,45,45,1,The number five can go on forever,j,,,
,,,,,,,,3488,2022-04-06_18h05.22.324,ImplicitInfinitySC-SLOWTASK,2021.2.3,Win32,60.0240096,,,,space,0.5832,,,,,,,,,,f,1,1.651,,0,46,46,100,1,A truck is a vehicle,f,,,
,,,,,,,,3488,2022-04-06_18h05.22.324,ImplicitInfinitySC-SLOWTASK,2021.2.3,Win32,60.0240096,,,,space,0.6504,,,,,,,,,,j,1,1.4177,,0,47,47,126,1,Humans can breathe water,j,,,
,,,,,,,,3488,2022-04-06_18h05.22.324,ImplicitInfinitySC-SLOWTASK,2021.2.3,Win32,60.0240096,,,,space,0.5466,,,,,,,,,,j,1,1.4495,,0,48,48,78,1,Hammers are alive,j,,,
,,,,,,,,3488,2022-04-06_18h05.22.324,ImplicitInfinitySC-SLOWTASK,2021.2.3,Win32,60.0240096,,,,space,0.5024,,,,,,,,,,j,1,2.4828,,0,49,49,64,1,Echoes are composed of matter,j,,,
,,,,,,,,3488,2022-04-06_18h05.22.324,ImplicitInfinitySC-SLOWTASK,2021.2.3,Win32,60.0240096,,,,space,0.533,,,,,,,,,,j,1,1.5164,,0,50,50,61,1,Sailboats reproduce,j,,,
,,,,,,,,3488,2022-04-06_18h05.22.324,ImplicitInfinitySC-SLOWTASK,2021.2.3,Win32,60.0240096,,,,space,0.5827,,,,,,,,,,f,1,1.5494,,0,51,51,103,1,The United States is a country,f,,,
,,,,,,,,3488,2022-04-06_18h05.22.324,ImplicitInfinitySC-SLOWTASK,2021.2.3,Win32,60.0240096,,,,space,1.6325,,,,,,,,,,f,1,1.7497,,0,52,52,42,1,The number five has an end,f,,,
,,,,,,,,3488,2022-04-06_18h05.22.324,ImplicitInfinitySC-SLOWTASK,2021.2.3,Win32,60.0240096,,,,space,0.4674,,,,,,,,,,f,1,1.5009,,0,53,53,95,1,Yellow is a color,f,,,
,,,,,,,,3488,2022-04-06_18h05.22.324,ImplicitInfinitySC-SLOWTASK,2021.2.3,Win32,60.0240096,,,,space,5.6848,,,,,,,,,,j,1,6.3658,,0,54,54,46,1,The number five cannot always be further divided,j,,,
,,,,,,,,3488,2022-04-06_18h05.22.324,ImplicitInfinitySC-SLOWTASK,2021.2.3,Win32,60.0240096,,,,space,0.6506,,,,,,,,,,j,1,3.2318,,0,55,55,16,1,Time is finite,j,,,
,,,,,,,,3488,2022-04-06_18h05.22.324,ImplicitInfinitySC-SLOWTASK,2021.2.3,Win32,60.0240096,,,,space,0.5172,,,,,,,,,,j,1,1.9008,,0,56,56,59,1,Comets are alive,j,,,
,,,,,,,,3488,2022-04-06_18h05.22.324,ImplicitInfinitySC-SLOWTASK,2021.2.3,Win32,60.0240096,,,,space,0.6163,,,,,,,,,,f,1,1.2528,,0,57,57,93,1,Magenta is a color,f,,,
,,,,,,,,3488,2022-04-06_18h05.22.324,ImplicitInfinitySC-SLOWTASK,2021.2.3,Win32,60.0240096,,,,space,0.6001,,,,,,,,,,f,1,1.4178,,0,58,58,104,1,The United States has a president,f,,,
,,,,,,,,3488,2022-04-06_18h05.22.324,ImplicitInfinitySC-SLOWTASK,2021.2.3,Win32,60.0240096,,,,space,0.8832,,,,,,,,,,j,0,1.6162,,0,59,59,71,1,Oaks reproduce,f,,,
,,,,,,,,3488,2022-04-06_18h05.22.324,ImplicitInfinitySC-SLOWTASK,2021.2.3,Win32,60.0240096,,,,space,0.6413,,,,,,,,,,f,1,1.6514,,0,60,60,52,1,Frogs reproduce,f,,,
,,,,,,,,3488,2022-04-06_18h05.22.324,ImplicitInfinitySC-SLOWTASK,2021.2.3,Win32,60.0240096,,,,space,0.456,,,,,,,,,,f,1,2.8168,,0,61,61,90,1,A triangle is not an animal,f,,,
,,,,,,,,3488,2022-04-06_18h05.22.324,ImplicitInfinitySC-SLOWTASK,2021.2.3,Win32,60.0240096,,,,space,0.683,,,,,,,,,,j,1,2.1844,,0,62,62,87,1,Dreams have a molecular structure,j,,,
,,,,,,,,3488,2022-04-06_18h05.22.324,ImplicitInfinitySC-SLOWTASK,2021.2.3,Win32,60.0240096,,,,space,0.5337,,,,,,,,,,f,1,1.434,,0,63,63,89,1,A square is a shape,f,,,
,,,,,,,,3488,2022-04-06_18h05.22.324,ImplicitInfinitySC-SLOWTASK,2021.2.3,Win32,60.0240096,,,,space,0.4497,,,,,,,,,,f,1,1.834,,0,64,64,8,1,An inch is finite,f,,,
,,,,,,,,3488,2022-04-06_18h05.22.324,ImplicitInfinitySC-SLOWTASK,2021.2.3,Win32,60.0240096,,,,space,0.4842,,,,,,,,,,j,1,1.7839,,0,65,65,116,1,Fish cannot swim in the ocean,j,,,
,,,,,,,,3488,2022-04-06_18h05.22.324,ImplicitInfinitySC-SLOWTASK,2021.2.3,Win32,60.0240096,,,,space,0.5018,,,,,,,,,,f,1,2.1832,,0,66,66,53,1,Bricks can be put in a container,f,,,
,,,,,,,,3488,2022-04-06_18h05.22.324,ImplicitInfinitySC-SLOWTASK,2021.2.3,Win32,60.0240096,,,,space,0.5003,,,,,,,,,,j,1,1.434,,0,67,67,119,1,A motorcycle is a person,j,,,
,,,,,,,,3488,2022-04-06_18h05.22.324,ImplicitInfinitySC-SLOWTASK,2021.2.3,Win32,60.0240096,,,,space,0.5343,,,,,,,,,,f,1,1.3334,,0,68,68,96,1,Fish can swim in the ocean,f,,,
,,,,,,,,3488,2022-04-06_18h05.22.324,ImplicitInfinitySC-SLOWTASK,2021.2.3,Win32,60.0240096,,,,space,0.416,,,,,,,,,,f,1,1.807,,0,69,69,92,1,Dinosaurs are extinct,f,,,
,,,,,,,,3488,2022-04-06_18h05.22.324,ImplicitInfinitySC-SLOWTASK,2021.2.3,Win32,60.0240096,,,,space,0.4839,,,,,,,,,,f,1,1.7007,,0,70,70,21,1,Time can go on forever,f,,,
,,,,,,,,3488,2022-04-06_18h05.22.324,ImplicitInfinitySC-SLOWTASK,2021.2.3,Win32,60.0240096,,,,space,0.5531,,,,,,,,,,f,1,2.75,,0,71,71,31,1,Space can always be further divided,f,,,
,,,,,,,,3488,2022-04-06_18h05.22.324,ImplicitInfinitySC-SLOWTASK,2021.2.3,Win32,60.0240096,,,,space,0.441,,,,,,,,,,j,1,2.4667,,0,72,72,63,1,Color can be put in a container,j,,,
,,,,,,,,3488,2022-04-06_18h05.22.324,ImplicitInfinitySC-SLOWTASK,2021.2.3,Win32,60.0240096,,,,space,0.4829,,,,,,,,,,j,1,2.8343,,0,73,73,38,1,Numbers cannot always be further divided,j,,,
,,,,,,,,3488,2022-04-06_18h05.22.324,ImplicitInfinitySC-SLOWTASK,2021.2.3,Win32,60.0240096,,,,space,0.5508,,,,,,,,,,j,1,2.2369,,0,74,74,36,1,Numbers cannot go on forever,j,,,
,,,,,,,,3488,2022-04-06_18h05.22.324,ImplicitInfinitySC-SLOWTASK,2021.2.3,Win32,60.0240096,,,,space,0.5189,,,,,,,,,,f,1,1.686,,0,75,75,25,1,Space is infinite,f,,,
,,,,,,,,3488,2022-04-06_18h05.22.324,ImplicitInfinitySC-SLOWTASK,2021.2.3,Win32,60.0240096,,,,space,0.4344,,,,,,,,,,f,1,2.0187,,0,76,76,77,1,Saliva has a molecular structure,f,,,
,,,,,,,,3488,2022-04-06_18h05.22.324,ImplicitInfinitySC-SLOWTASK,2021.2.3,Win32,60.0240096,,,,space,0.4839,,,,,,,,,,j,1,2.1001,,0,77,77,1,1,A minute is infinite,j,,,
,,,,,,,,3488,2022-04-06_18h05.22.324,ImplicitInfinitySC-SLOWTASK,2021.2.3,Win32,60.0240096,,,,space,0.4504,,,,,,,,,,f,1,2.1003,,0,78,78,7,1,A minute can always be further divided,f,,,
,,,,,,,,3488,2022-04-06_18h05.22.324,ImplicitInfinitySC-SLOWTASK,2021.2.3,Win32,60.0240096,,,,space,0.5161,,,,,,,,,,f,1,1.467,,0,79,79,57,1,Rocks have a molecular structure,f,,,
,,,,,,,,3488,2022-04-06_18h05.22.324,ImplicitInfinitySC-SLOWTASK,2021.2.3,Win32,60.0240096,,,,space,0.4714,,,,,,,,,,j,1,1.3172,,0,80,80,11,1,An inch is endless,j,,,
,,,,,,,,3488,2022-04-06_18h05.22.324,ImplicitInfinitySC-SLOWTASK,2021.2.3,Win32,60.0240096,,,,,,,,,,,,,,,,,,,,,,,,,,,space,17.308
