SlowInstrKey.keys,SlowInstrKey.rt,SlowInstrLoop.thisRepN,SlowInstrLoop.thisTrialN,SlowInstrLoop.thisN,SlowInstrLoop.thisIndex,SlowInstrLoop.ran,SlowInstructions,participant,date,expName,psychopyVersion,OS,frameRate,key_resp_5.keys,key_resp_5.corr,key_resp_5.rt,key_resp_4.keys,key_resp_4.rt,slowpracticeloop.thisRepN,slowpracticeloop.thisTrialN,slowpracticeloop.thisN,slowpracticeloop.thisIndex,slowpracticeloop.ran,practicetext,practicecorrect,key_resp_3.keys,key_resp_3.rt,SlowKey.keys,SlowKey.corr,SlowKey.rt,encouragekey.keys,SlowLoop.thisRepN,SlowLoop.thisTrialN,SlowLoop.thisN,SlowLoop.thisIndex,SlowLoop.ran,Statement,Correct,encouragekey.rt,endstudykey.keys
space,8.6194,0,0,0,0,1,"You will be shown a total of 80 statements pertaining to mathematics, science, and social concepts. Your task is to determine whether each statement is true or false. Some statements will be difficult and some will be easier.  We do not expect you to know the correct answer for all 80 statements.  Press SPACE to Continue",3534,2022-04-06_19h01.48.871,ImplicitInfinitySC-SLOWTASK,2021.2.3,Win32,59.9268892,,,,,,,,,,,,,,,,,,,,,,,,,,,
space,9.8342,0,1,1,1,1,"We urge you to try your best and take your time. Each statement will appear on your screen and you will have 10 seconds to decide if it is true or false. You will hear a beep at 6 seconds that will prompt you to respond within the next 4 seconds. If you fail to respond within this time, the trial will be counted as incorrect and the next statement will appear. Press SPACE to continue",3534,2022-04-06_19h01.48.871,ImplicitInfinitySC-SLOWTASK,2021.2.3,Win32,59.9268892,,,,,,,,,,,,,,,,,,,,,,,,,,,
space,25.3859,0,2,2,2,1,"If the statement is true, you will press the “F” key on your keyboard with your left pointer finger; if the statement is false, you will press the “J” key on your keyboard with your right pointer finger. Press SPACE to continue",3534,2022-04-06_19h01.48.871,ImplicitInfinitySC-SLOWTASK,2021.2.3,Win32,59.9268892,,,,,,,,,,,,,,,,,,,,,,,,,,,
space,2.201,0,3,3,3,1,Take your time and go slowly! You have 10 seconds to answer! Press SPACE to continue. ,3534,2022-04-06_19h01.48.871,ImplicitInfinitySC-SLOWTASK,2021.2.3,Win32,59.9268892,,,,,,,,,,,,,,,,,,,,,,,,,,,
,,,,,,,,3534,2022-04-06_19h01.48.871,ImplicitInfinitySC-SLOWTASK,2021.2.3,Win32,59.9268892,j,1,2.0045,space,2.1805,0,0,0,5,1,A truck is an animal,j,,,,,,,,,,,,,,,
,,,,,,,,3534,2022-04-06_19h01.48.871,ImplicitInfinitySC-SLOWTASK,2021.2.3,Win32,59.9268892,f,0,1.9029,space,2.994,0,1,1,7,1,The Earth is a star,j,,,,,,,,,,,,,,,
,,,,,,,,3534,2022-04-06_19h01.48.871,ImplicitInfinitySC-SLOWTASK,2021.2.3,Win32,59.9268892,f,1,2.3653,space,0.9657,0,2,2,0,1,A circle is a shape,f,,,,,,,,,,,,,,,
,,,,,,,,3534,2022-04-06_19h01.48.871,ImplicitInfinitySC-SLOWTASK,2021.2.3,Win32,59.9268892,j,1,1.7654,space,1.5446,0,3,3,9,1,Humans cannot eat food,j,,,,,,,,,,,,,,,
,,,,,,,,3534,2022-04-06_19h01.48.871,ImplicitInfinitySC-SLOWTASK,2021.2.3,Win32,59.9268892,j,1,2.1195,space,1.0008,0,4,4,6,1,Jupiter is the planet we live on,j,,,,,,,,,,,,,,,
,,,,,,,,3534,2022-04-06_19h01.48.871,ImplicitInfinitySC-SLOWTASK,2021.2.3,Win32,59.9268892,f,1,2.5941,space,1.0358,0,5,5,4,1,Humans cannot breathe water,f,,,,,,,,,,,,,,,
,,,,,,,,3534,2022-04-06_19h01.48.871,ImplicitInfinitySC-SLOWTASK,2021.2.3,Win32,59.9268892,f,1,2.2857,space,0.9009,0,6,6,1,1,Dinosaurs are extinct,f,,,,,,,,,,,,,,,
,,,,,,,,3534,2022-04-06_19h01.48.871,ImplicitInfinitySC-SLOWTASK,2021.2.3,Win32,59.9268892,j,1,2.0892,space,0.7995,0,7,7,8,1,Mississippi is a country,j,,,,,,,,,,,,,,,
,,,,,,,,3534,2022-04-06_19h01.48.871,ImplicitInfinitySC-SLOWTASK,2021.2.3,Win32,59.9268892,f,1,1.9999,space,0.6241,0,8,8,2,1,Magenta is a color,f,,,,,,,,,,,,,,,
,,,,,,,,3534,2022-04-06_19h01.48.871,ImplicitInfinitySC-SLOWTASK,2021.2.3,Win32,59.9268892,f,1,1.5793,space,0.6791,0,9,9,3,1,A clock is used to tell time,f,,,,,,,,,,,,,,,
,,,,,,,,3534,2022-04-06_19h01.48.871,ImplicitInfinitySC-SLOWTASK,2021.2.3,Win32,59.9268892,,,,space,1.1828,,,,,,,,space,6.049,j,1,2.1513,,0,0,0,124,1,The president of the United States is Oprah,j,,
,,,,,,,,3534,2022-04-06_19h01.48.871,ImplicitInfinitySC-SLOWTASK,2021.2.3,Win32,59.9268892,,,,space,0.5675,,,,,,,,,,f,1,2.9977,,0,1,1,74,1,Foam is composed of matter,f,,
,,,,,,,,3534,2022-04-06_19h01.48.871,ImplicitInfinitySC-SLOWTASK,2021.2.3,Win32,59.9268892,,,,space,0.4012,,,,,,,,,,f,1,1.6655,,0,2,2,95,1,Yellow is a color,f,,
,,,,,,,,3534,2022-04-06_19h01.48.871,ImplicitInfinitySC-SLOWTASK,2021.2.3,Win32,59.9268892,,,,space,0.8557,,,,,,,,,,f,1,2.3158,,0,3,3,57,1,Rocks have a molecular structure,f,,
,,,,,,,,3534,2022-04-06_19h01.48.871,ImplicitInfinitySC-SLOWTASK,2021.2.3,Win32,59.9268892,,,,space,0.3757,,,,,,,,,,f,1,1.4402,,0,4,4,94,1,Orange is a color,f,,
,,,,,,,,3534,2022-04-06_19h01.48.871,ImplicitInfinitySC-SLOWTASK,2021.2.3,Win32,59.9268892,,,,space,0.3171,,,,,,,,,,j,1,2.1032,,0,5,5,87,1,Dreams have a molecular structure,j,,
,,,,,,,,3534,2022-04-06_19h01.48.871,ImplicitInfinitySC-SLOWTASK,2021.2.3,Win32,59.9268892,,,,space,0.2639,,,,,,,,,,j,1,3.7501,,0,6,6,80,1,Mittens need nutrients,j,,
,,,,,,,,3534,2022-04-06_19h01.48.871,ImplicitInfinitySC-SLOWTASK,2021.2.3,Win32,59.9268892,,,,space,0.7349,,,,,,,,,,f,1,3.0862,,0,7,7,105,1,There are fifty states in the United States,f,,
,,,,,,,,3534,2022-04-06_19h01.48.871,ImplicitInfinitySC-SLOWTASK,2021.2.3,Win32,59.9268892,,,,space,0.3395,,,,,,,,,,f,1,2.0691,,0,8,8,55,1,Concrete is composed of matter,f,,
,,,,,,,,3534,2022-04-06_19h01.48.871,ImplicitInfinitySC-SLOWTASK,2021.2.3,Win32,59.9268892,,,,space,0.3674,,,,,,,,,,f,1,2.7637,,0,9,9,54,1,Dumbells are composed of matter,f,,
,,,,,,,,3534,2022-04-06_19h01.48.871,ImplicitInfinitySC-SLOWTASK,2021.2.3,Win32,59.9268892,,,,space,0.9676,,,,,,,,,,j,0,2.938,,0,10,10,19,1,Time is endless,f,,
,,,,,,,,3534,2022-04-06_19h01.48.871,ImplicitInfinitySC-SLOWTASK,2021.2.3,Win32,59.9268892,,,,space,0.5515,,,,,,,,,,f,0,3.7804,,0,11,11,22,1,Time cannot always be further divided,j,,
,,,,,,,,3534,2022-04-06_19h01.48.871,ImplicitInfinitySC-SLOWTASK,2021.2.3,Win32,59.9268892,,,,space,0.2829,,,,,,,,,,j,1,2.6248,,0,12,12,84,1,Silence is composed of matter,j,,
,,,,,,,,3534,2022-04-06_19h01.48.871,ImplicitInfinitySC-SLOWTASK,2021.2.3,Win32,59.9268892,,,,space,0.3175,,,,,,,,,,j,1,1.6989,,0,13,13,60,1,Robots need nutrients,j,,
,,,,,,,,3534,2022-04-06_19h01.48.871,ImplicitInfinitySC-SLOWTASK,2021.2.3,Win32,59.9268892,,,,space,0.2847,,,,,,,,,,f,1,3.5151,,0,14,14,73,1,Bubbles can be put in a container,f,,
,,,,,,,,3534,2022-04-06_19h01.48.871,ImplicitInfinitySC-SLOWTASK,2021.2.3,Win32,59.9268892,,,,space,0.2839,,,,,,,,,,f,1,1.737,,0,15,15,88,1,This sentence is written in English,f,,
,,,,,,,,3534,2022-04-06_19h01.48.871,ImplicitInfinitySC-SLOWTASK,2021.2.3,Win32,59.9268892,,,,space,0.3053,,,,,,,,,,j,1,1.9106,,0,16,16,11,1,An inch is endless,j,,
,,,,,,,,3534,2022-04-06_19h01.48.871,ImplicitInfinitySC-SLOWTASK,2021.2.3,Win32,59.9268892,,,,space,0.284,,,,,,,,,,f,1,2.1703,,0,17,17,76,1,Pollen has a molecular structure,f,,
,,,,,,,,3534,2022-04-06_19h01.48.871,ImplicitInfinitySC-SLOWTASK,2021.2.3,Win32,59.9268892,,,,space,0.3341,,,,,,,,,,j,0,3.7818,,0,18,18,39,1,Numbers can always be further divided,f,,
,,,,,,,,3534,2022-04-06_19h01.48.871,ImplicitInfinitySC-SLOWTASK,2021.2.3,Win32,59.9268892,,,,space,0.2839,,,,,,,,,,f,1,1.6953,,0,19,19,93,1,Magenta is a color,f,,
,,,,,,,,3534,2022-04-06_19h01.48.871,ImplicitInfinitySC-SLOWTASK,2021.2.3,Win32,59.9268892,,,,space,0.2384,,,,,,,,,,f,1,1.7773,,0,20,20,77,1,Saliva has a molecular structure,f,,
,,,,,,,,3534,2022-04-06_19h01.48.871,ImplicitInfinitySC-SLOWTASK,2021.2.3,Win32,59.9268892,,,,space,0.4843,,,,,,,,,,j,1,1.6936,,0,21,21,81,1,Tables reproduce,j,,
,,,,,,,,3534,2022-04-06_19h01.48.871,ImplicitInfinitySC-SLOWTASK,2021.2.3,Win32,59.9268892,,,,space,0.3139,,,,,,,,,,j,0,3.3633,,0,22,22,35,1,Numbers are endless,f,,
,,,,,,,,3534,2022-04-06_19h01.48.871,ImplicitInfinitySC-SLOWTASK,2021.2.3,Win32,59.9268892,,,,space,0.2883,,,,,,,,,,j,1,1.7661,,0,23,23,62,1,Helicopters reproduce,j,,
,,,,,,,,3534,2022-04-06_19h01.48.871,ImplicitInfinitySC-SLOWTASK,2021.2.3,Win32,59.9268892,,,,space,0.3841,,,,,,,,,,f,1,1.7194,,0,24,24,48,1,Crocodiles are alive,f,,
,,,,,,,,3534,2022-04-06_19h01.48.871,ImplicitInfinitySC-SLOWTASK,2021.2.3,Win32,59.9268892,,,,space,0.2556,,,,,,,,,,j,1,2.6344,,0,25,25,45,1,The number five can go on forever,j,,
,,,,,,,,3534,2022-04-06_19h01.48.871,ImplicitInfinitySC-SLOWTASK,2021.2.3,Win32,59.9268892,,,,space,0.2386,,,,,,,,,,f,1,2.4493,,0,26,26,0,1,A minute is finite,f,,
,,,,,,,,3534,2022-04-06_19h01.48.871,ImplicitInfinitySC-SLOWTASK,2021.2.3,Win32,59.9268892,,,,space,0.2341,,,,,,,,,,j,0,3.786,,0,27,27,25,1,Space is infinite,f,,
,,,,,,,,3534,2022-04-06_19h01.48.871,ImplicitInfinitySC-SLOWTASK,2021.2.3,Win32,59.9268892,,,,space,0.2674,,,,,,,,,,j,1,1.7704,,0,28,28,86,1,Words have a molecular structure,j,,
,,,,,,,,3534,2022-04-06_19h01.48.871,ImplicitInfinitySC-SLOWTASK,2021.2.3,Win32,59.9268892,,,,space,0.3009,,,,,,,,,,j,1,2.2579,,0,29,29,118,1,A horse is used to tell time,j,,
,,,,,,,,3534,2022-04-06_19h01.48.871,ImplicitInfinitySC-SLOWTASK,2021.2.3,Win32,59.9268892,,,,space,0.2707,,,,,,,,,,f,1,1.6159,,0,30,30,52,1,Frogs reproduce,f,,
,,,,,,,,3534,2022-04-06_19h01.48.871,ImplicitInfinitySC-SLOWTASK,2021.2.3,Win32,59.9268892,,,,space,0.4678,,,,,,,,,,j,1,2.6652,,0,31,31,65,1,Shadows are composed of matter,j,,
,,,,,,,,3534,2022-04-06_19h01.48.871,ImplicitInfinitySC-SLOWTASK,2021.2.3,Win32,59.9268892,,,,space,0.2958,,,,,,,,,,f,1,2.0734,,0,32,32,97,1,Dolphins can swim in the ocean,f,,
,,,,,,,,3534,2022-04-06_19h01.48.871,ImplicitInfinitySC-SLOWTASK,2021.2.3,Win32,59.9268892,,,,space,0.2545,,,,,,,,,,f,0,2.0491,,0,33,33,18,1,Time has an end,j,,
,,,,,,,,3534,2022-04-06_19h01.48.871,ImplicitInfinitySC-SLOWTASK,2021.2.3,Win32,59.9268892,,,,space,0.2583,,,,,,,,,,f,0,3.4865,,0,34,34,28,1,Space cannot go on forever,j,,
,,,,,,,,3534,2022-04-06_19h01.48.871,ImplicitInfinitySC-SLOWTASK,2021.2.3,Win32,59.9268892,,,,space,0.2675,,,,,,,,,,f,1,1.9399,,0,35,35,40,1,The number five is finite,f,,
,,,,,,,,3534,2022-04-06_19h01.48.871,ImplicitInfinitySC-SLOWTASK,2021.2.3,Win32,59.9268892,,,,space,0.239,,,,,,,,,,f,1,1.7652,,0,36,36,104,1,The United States has a president,f,,
,,,,,,,,3534,2022-04-06_19h01.48.871,ImplicitInfinitySC-SLOWTASK,2021.2.3,Win32,59.9268892,,,,space,0.2958,,,,,,,,,,f,0,3.3664,,0,37,37,24,1,Space is finite,j,,
,,,,,,,,3534,2022-04-06_19h01.48.871,ImplicitInfinitySC-SLOWTASK,2021.2.3,Win32,59.9268892,,,,space,0.3175,,,,,,,,,,j,1,1.5472,,0,38,38,120,1,A truck is an animal,j,,
,,,,,,,,3534,2022-04-06_19h01.48.871,ImplicitInfinitySC-SLOWTASK,2021.2.3,Win32,59.9268892,,,,space,0.2994,,,,,,,,,,j,1,2.5331,,0,39,39,41,1,The number five is infinite,j,,
,,,,,,,,3534,2022-04-06_19h01.48.871,ImplicitInfinitySC-SLOWTASK,2021.2.3,Win32,59.9268892,,,,space,2.9631,,,,,,,,,,f,1,1.4323,space,0,40,40,103,1,The United States is a country,f,2.3349,
,,,,,,,,3534,2022-04-06_19h01.48.871,ImplicitInfinitySC-SLOWTASK,2021.2.3,Win32,59.9268892,,,,space,0.4387,,,,,,,,,,f,1,1.5565,,0,41,41,51,1,Tigers reproduce,f,,
,,,,,,,,3534,2022-04-06_19h01.48.871,ImplicitInfinitySC-SLOWTASK,2021.2.3,Win32,59.9268892,,,,space,0.305,,,,,,,,,,f,1,2.2514,,0,42,42,53,1,Bricks can be put in a container,f,,
,,,,,,,,3534,2022-04-06_19h01.48.871,ImplicitInfinitySC-SLOWTASK,2021.2.3,Win32,59.9268892,,,,space,0.3063,,,,,,,,,,j,0,3.3031,,0,43,43,31,1,Space can always be further divided,f,,
,,,,,,,,3534,2022-04-06_19h01.48.871,ImplicitInfinitySC-SLOWTASK,2021.2.3,Win32,59.9268892,,,,space,0.2512,,,,,,,,,,f,1,1.6493,,0,44,44,70,1,Grass needs nutrients,f,,
,,,,,,,,3534,2022-04-06_19h01.48.871,ImplicitInfinitySC-SLOWTASK,2021.2.3,Win32,59.9268892,,,,space,0.2879,,,,,,,,,,j,1,1.6987,,0,45,45,123,1,Mississippi is a country,j,,
,,,,,,,,3534,2022-04-06_19h01.48.871,ImplicitInfinitySC-SLOWTASK,2021.2.3,Win32,59.9268892,,,,space,0.3127,,,,,,,,,,j,0,3.0161,,0,46,46,27,1,Space is endless,f,,
,,,,,,,,3534,2022-04-06_19h01.48.871,ImplicitInfinitySC-SLOWTASK,2021.2.3,Win32,59.9268892,,,,space,0.3058,,,,,,,,,,f,1,1.3704,,0,47,47,72,1,Mushrooms reproduce,f,,
,,,,,,,,3534,2022-04-06_19h01.48.871,ImplicitInfinitySC-SLOWTASK,2021.2.3,Win32,59.9268892,,,,space,0.2888,,,,,,,,,,f,1,1.643,,0,48,48,99,1,A motorcycle is a vehicle,f,,
,,,,,,,,3534,2022-04-06_19h01.48.871,ImplicitInfinitySC-SLOWTASK,2021.2.3,Win32,59.9268892,,,,space,0.2889,,,,,,,,,,f,0,1.632,,0,49,49,34,1,Numbers have an end,j,,
,,,,,,,,3534,2022-04-06_19h01.48.871,ImplicitInfinitySC-SLOWTASK,2021.2.3,Win32,59.9268892,,,,space,0.2536,,,,,,,,,,f,1,1.9648,,0,50,50,44,1,The number five cannot go on forever,f,,
,,,,,,,,3534,2022-04-06_19h01.48.871,ImplicitInfinitySC-SLOWTASK,2021.2.3,Win32,59.9268892,,,,space,0.2845,,,,,,,,,,f,1,1.4991,,0,51,51,69,1,Bacteria are alive,f,,
,,,,,,,,3534,2022-04-06_19h01.48.871,ImplicitInfinitySC-SLOWTASK,2021.2.3,Win32,59.9268892,,,,space,0.2939,,,,,,,,,,j,1,2.1473,,0,52,52,113,1,Magenta is a shape,j,,
,,,,,,,,3534,2022-04-06_19h01.48.871,ImplicitInfinitySC-SLOWTASK,2021.2.3,Win32,59.9268892,,,,space,0.2666,,,,,,,,,,j,1,2.0866,,0,53,53,109,1,A square is a color,j,,
,,,,,,,,3534,2022-04-06_19h01.48.871,ImplicitInfinitySC-SLOWTASK,2021.2.3,Win32,59.9268892,,,,space,0.3039,,,,,,,,,,j,1,2.1657,,0,54,54,1,1,A minute is infinite,j,,
,,,,,,,,3534,2022-04-06_19h01.48.871,ImplicitInfinitySC-SLOWTASK,2021.2.3,Win32,59.9268892,,,,space,0.3098,,,,,,,,,,f,0,2.2502,,0,55,55,26,1,Space has an end,j,,
,,,,,,,,3534,2022-04-06_19h01.48.871,ImplicitInfinitySC-SLOWTASK,2021.2.3,Win32,59.9268892,,,,space,0.5842,,,,,,,,,,j,1,2.9099,,0,56,56,66,1,Music has a molecular structure,j,,
,,,,,,,,3534,2022-04-06_19h01.48.871,ImplicitInfinitySC-SLOWTASK,2021.2.3,Win32,59.9268892,,,,space,0.2834,,,,,,,,,,f,1,1.5323,,0,57,57,98,1,A clock is used to tell time,f,,
,,,,,,,,3534,2022-04-06_19h01.48.871,ImplicitInfinitySC-SLOWTASK,2021.2.3,Win32,59.9268892,,,,space,0.3225,,,,,,,,,,f,0,2.4486,,0,58,58,32,1,Numbers are finite,j,,
,,,,,,,,3534,2022-04-06_19h01.48.871,ImplicitInfinitySC-SLOWTASK,2021.2.3,Win32,59.9268892,,,,space,0.3011,,,,,,,,,,f,1,1.9538,,0,59,59,2,1,A minute has an end,f,,
,,,,,,,,3534,2022-04-06_19h01.48.871,ImplicitInfinitySC-SLOWTASK,2021.2.3,Win32,59.9268892,,,,space,0.2231,,,,,,,,,,f,1,1.6492,,0,60,60,10,1,An inch has an end,f,,
,,,,,,,,3534,2022-04-06_19h01.48.871,ImplicitInfinitySC-SLOWTASK,2021.2.3,Win32,59.9268892,,,,space,0.2885,,,,,,,,,,j,1,1.8938,,0,61,61,122,1,The Earth is a star,j,,
,,,,,,,,3534,2022-04-06_19h01.48.871,ImplicitInfinitySC-SLOWTASK,2021.2.3,Win32,59.9268892,,,,space,0.3217,,,,,,,,,,j,1,3.1487,,0,62,62,64,1,Echoes are composed of matter,j,,
,,,,,,,,3534,2022-04-06_19h01.48.871,ImplicitInfinitySC-SLOWTASK,2021.2.3,Win32,59.9268892,,,,space,0.2509,,,,,,,,,,f,1,1.9751,,0,63,63,12,1,An inch cannot go on forever,f,,
,,,,,,,,3534,2022-04-06_19h01.48.871,ImplicitInfinitySC-SLOWTASK,2021.2.3,Win32,59.9268892,,,,space,0.4046,,,,,,,,,,j,1,3.4686,,0,64,64,9,1,An inch is infinite,j,,
,,,,,,,,3534,2022-04-06_19h01.48.871,ImplicitInfinitySC-SLOWTASK,2021.2.3,Win32,59.9268892,,,,space,0.3012,,,,,,,,,,f,1,2.0669,,0,65,65,96,1,Fish can swim in the ocean,f,,
,,,,,,,,3534,2022-04-06_19h01.48.871,ImplicitInfinitySC-SLOWTASK,2021.2.3,Win32,59.9268892,,,,space,0.2179,,,,,,,,,,f,1,3.2159,,0,66,66,50,1,Turtles need nutrients,f,,
,,,,,,,,3534,2022-04-06_19h01.48.871,ImplicitInfinitySC-SLOWTASK,2021.2.3,Win32,59.9268892,,,,space,0.2359,,,,,,,,,,j,0,2.4869,,0,67,67,23,1,Time can always be further divided,f,,
,,,,,,,,3534,2022-04-06_19h01.48.871,ImplicitInfinitySC-SLOWTASK,2021.2.3,Win32,59.9268892,,,,space,0.2082,,,,,,,,,,j,1,1.9822,,0,68,68,59,1,Comets are alive,j,,
,,,,,,,,3534,2022-04-06_19h01.48.871,ImplicitInfinitySC-SLOWTASK,2021.2.3,Win32,59.9268892,,,,space,0.221,,,,,,,,,,f,0,2.7823,,0,69,69,20,1,Time cannot go on forever,j,,
,,,,,,,,3534,2022-04-06_19h01.48.871,ImplicitInfinitySC-SLOWTASK,2021.2.3,Win32,59.9268892,,,,space,0.2674,,,,,,,,,,f,1,2.1212,,0,70,70,68,1,Algae is alive,f,,
,,,,,,,,3534,2022-04-06_19h01.48.871,ImplicitInfinitySC-SLOWTASK,2021.2.3,Win32,59.9268892,,,,space,0.2943,,,,,,,,,,f,0,4.1561,,0,71,71,30,1,Space cannot always be further divided,j,,
,,,,,,,,3534,2022-04-06_19h01.48.871,ImplicitInfinitySC-SLOWTASK,2021.2.3,Win32,59.9268892,,,,space,0.2848,,,,,,,,,,j,1,2.0913,,0,72,72,112,1,Dinosaurs are not extinct,j,,
,,,,,,,,3534,2022-04-06_19h01.48.871,ImplicitInfinitySC-SLOWTASK,2021.2.3,Win32,59.9268892,,,,space,0.2846,,,,,,,,,,j,0,2.3884,,0,73,73,21,1,Time can go on forever,f,,
,,,,,,,,3534,2022-04-06_19h01.48.871,ImplicitInfinitySC-SLOWTASK,2021.2.3,Win32,59.9268892,,,,space,0.2688,,,,,,,,,,j,1,2.306,,0,74,74,126,1,Humans can breathe water,j,,
,,,,,,,,3534,2022-04-06_19h01.48.871,ImplicitInfinitySC-SLOWTASK,2021.2.3,Win32,59.9268892,,,,space,0.2388,,,,,,,,,,j,1,2.2328,,0,75,75,121,1,Jupiter is the planet we live on,j,,
,,,,,,,,3534,2022-04-06_19h01.48.871,ImplicitInfinitySC-SLOWTASK,2021.2.3,Win32,59.9268892,,,,space,0.2512,,,,,,,,,,f,1,2.1436,,0,76,76,49,1,Pelicans are alive,f,,
,,,,,,,,3534,2022-04-06_19h01.48.871,ImplicitInfinitySC-SLOWTASK,2021.2.3,Win32,59.9268892,,,,space,0.479,,,,,,,,,,j,1,2.3068,,0,77,77,67,1,Gravity has a molecular structure,j,,
,,,,,,,,3534,2022-04-06_19h01.48.871,ImplicitInfinitySC-SLOWTASK,2021.2.3,Win32,59.9268892,,,,space,0.2098,,,,,,,,,,f,1,1.7597,,0,78,78,92,1,Dinosaurs are extinct,f,,
,,,,,,,,3534,2022-04-06_19h01.48.871,ImplicitInfinitySC-SLOWTASK,2021.2.3,Win32,59.9268892,,,,space,0.2512,,,,,,,,,,j,0,2.7899,,0,79,79,7,1,A minute can always be further divided,f,,
,,,,,,,,3534,2022-04-06_19h01.48.871,ImplicitInfinitySC-SLOWTASK,2021.2.3,Win32,59.9268892,,,,space,0.2678,,,,,,,,,,f,0,3.0106,,0,80,80,36,1,Numbers cannot go on forever,j,,
,,,,,,,,3534,2022-04-06_19h01.48.871,ImplicitInfinitySC-SLOWTASK,2021.2.3,Win32,59.9268892,,,,,,,,,,,,,,,,,,,,,,,,,,,
