SlowInstrKey.keys,SlowInstrKey.rt,SlowInstrLoop.thisRepN,SlowInstrLoop.thisTrialN,SlowInstrLoop.thisN,SlowInstrLoop.thisIndex,SlowInstrLoop.ran,SlowInstructions,participant,date,expName,psychopyVersion,OS,frameRate,key_resp_5.keys,key_resp_5.corr,key_resp_5.rt,key_resp_4.keys,key_resp_4.rt,slowpracticeloop.thisRepN,slowpracticeloop.thisTrialN,slowpracticeloop.thisN,slowpracticeloop.thisIndex,slowpracticeloop.ran,practicetext,practicecorrect,key_resp_3.keys,key_resp_3.rt,SlowKey.keys,SlowKey.corr,SlowKey.rt,encouragekey.keys,SlowLoop.thisRepN,SlowLoop.thisTrialN,SlowLoop.thisN,SlowLoop.thisIndex,SlowLoop.ran,Statement,Correct,encouragekey.rt,endstudykey.keys,endstudykey.rt
space,13.028,0,0,0,0,1,"You will be shown a total of 80 statements pertaining to mathematics, science, and social concepts. Your task is to determine whether each statement is true or false. Some statements will be difficult and some will be easier.  We do not expect you to know the correct answer for all 80 statements.  Press SPACE to Continue",4085,2022-04-06_18h57.13.243,ImplicitInfinitySC-SLOWTASK,2021.2.3,Win32,59.95203837,,,,,,,,,,,,,,,,,,,,,,,,,,,,
space,16.818,0,1,1,1,1,"We urge you to try your best and take your time. Each statement will appear on your screen and you will have 10 seconds to decide if it is true or false. You will hear a beep at 6 seconds that will prompt you to respond within the next 4 seconds. If you fail to respond within this time, the trial will be counted as incorrect and the next statement will appear. Press SPACE to continue",4085,2022-04-06_18h57.13.243,ImplicitInfinitySC-SLOWTASK,2021.2.3,Win32,59.95203837,,,,,,,,,,,,,,,,,,,,,,,,,,,,
space,11.114,0,2,2,2,1,"If the statement is true, you will press the “F” key on your keyboard with your left pointer finger; if the statement is false, you will press the “J” key on your keyboard with your right pointer finger. Press SPACE to continue",4085,2022-04-06_18h57.13.243,ImplicitInfinitySC-SLOWTASK,2021.2.3,Win32,59.95203837,,,,,,,,,,,,,,,,,,,,,,,,,,,,
space,2.333,0,3,3,3,1,Take your time and go slowly! You have 10 seconds to answer! Press SPACE to continue. ,4085,2022-04-06_18h57.13.243,ImplicitInfinitySC-SLOWTASK,2021.2.3,Win32,59.95203837,,,,,,,,,,,,,,,,,,,,,,,,,,,,
,,,,,,,,4085,2022-04-06_18h57.13.243,ImplicitInfinitySC-SLOWTASK,2021.2.3,Win32,59.95203837,f,1,1.833,space,1.836,0,0,0,2,1,Magenta is a color,f,,,,,,,,,,,,,,,,
,,,,,,,,4085,2022-04-06_18h57.13.243,ImplicitInfinitySC-SLOWTASK,2021.2.3,Win32,59.95203837,j,1,2.738,space,1.19,0,1,1,6,1,Jupiter is the planet we live on,j,,,,,,,,,,,,,,,,
,,,,,,,,4085,2022-04-06_18h57.13.243,ImplicitInfinitySC-SLOWTASK,2021.2.3,Win32,59.95203837,j,1,2.072,space,2.463,0,2,2,5,1,A truck is an animal,j,,,,,,,,,,,,,,,,
,,,,,,,,4085,2022-04-06_18h57.13.243,ImplicitInfinitySC-SLOWTASK,2021.2.3,Win32,59.95203837,j,1,1.647,space,2.278,0,3,3,9,1,Humans cannot eat food,j,,,,,,,,,,,,,,,,
,,,,,,,,4085,2022-04-06_18h57.13.243,ImplicitInfinitySC-SLOWTASK,2021.2.3,Win32,59.95203837,f,1,2.455,space,0.577,0,4,4,4,1,Humans cannot breathe water,f,,,,,,,,,,,,,,,,
,,,,,,,,4085,2022-04-06_18h57.13.243,ImplicitInfinitySC-SLOWTASK,2021.2.3,Win32,59.95203837,f,1,2.927,space,0.552,0,5,5,0,1,A circle is a shape,f,,,,,,,,,,,,,,,,
,,,,,,,,4085,2022-04-06_18h57.13.243,ImplicitInfinitySC-SLOWTASK,2021.2.3,Win32,59.95203837,j,1,2.969,space,0.399,0,6,6,7,1,The Earth is a star,j,,,,,,,,,,,,,,,,
,,,,,,,,4085,2022-04-06_18h57.13.243,ImplicitInfinitySC-SLOWTASK,2021.2.3,Win32,59.95203837,f,1,1.724,space,0.369,0,7,7,1,1,Dinosaurs are extinct,f,,,,,,,,,,,,,,,,
,,,,,,,,4085,2022-04-06_18h57.13.243,ImplicitInfinitySC-SLOWTASK,2021.2.3,Win32,59.95203837,j,1,2.45,space,0.48,0,8,8,8,1,Mississippi is a country,j,,,,,,,,,,,,,,,,
,,,,,,,,4085,2022-04-06_18h57.13.243,ImplicitInfinitySC-SLOWTASK,2021.2.3,Win32,59.95203837,f,1,1.822,space,0.501,0,9,9,3,1,A clock is used to tell time,f,,,,,,,,,,,,,,,,
,,,,,,,,4085,2022-04-06_18h57.13.243,ImplicitInfinitySC-SLOWTASK,2021.2.3,Win32,59.95203837,,,,space,0.6,,,,,,,,space,3.403,j,1,3.272,,0,0,0,66,1,Music has a molecular structure,j,,,
,,,,,,,,4085,2022-04-06_18h57.13.243,ImplicitInfinitySC-SLOWTASK,2021.2.3,Win32,59.95203837,,,,space,0.46,,,,,,,,,,f,1,3.599,,0,1,1,33,1,Numbers are infinite,f,,,
,,,,,,,,4085,2022-04-06_18h57.13.243,ImplicitInfinitySC-SLOWTASK,2021.2.3,Win32,59.95203837,,,,space,0.363,,,,,,,,,,j,0,4.474,,0,2,2,23,1,Time can always be further divided,f,,,
,,,,,,,,4085,2022-04-06_18h57.13.243,ImplicitInfinitySC-SLOWTASK,2021.2.3,Win32,59.95203837,,,,space,0.349,,,,,,,,,,j,1,5.437,,0,3,3,45,1,The number five can go on forever,j,,,
,,,,,,,,4085,2022-04-06_18h57.13.243,ImplicitInfinitySC-SLOWTASK,2021.2.3,Win32,59.95203837,,,,space,0.349,,,,,,,,,,f,1,1.561,,0,4,4,8,1,An inch is finite,f,,,
,,,,,,,,4085,2022-04-06_18h57.13.243,ImplicitInfinitySC-SLOWTASK,2021.2.3,Win32,59.95203837,,,,space,0.337,,,,,,,,,,j,1,1.995,,0,5,5,78,1,Hammers are alive,j,,,
,,,,,,,,4085,2022-04-06_18h57.13.243,ImplicitInfinitySC-SLOWTASK,2021.2.3,Win32,59.95203837,,,,space,0.314,,,,,,,,,,j,1,2.901,,0,6,6,9,1,An inch is infinite,j,,,
,,,,,,,,4085,2022-04-06_18h57.13.243,ImplicitInfinitySC-SLOWTASK,2021.2.3,Win32,59.95203837,,,,space,0.35,,,,,,,,,,j,1,2.048,,0,7,7,110,1,A triangle is an animal,j,,,
,,,,,,,,4085,2022-04-06_18h57.13.243,ImplicitInfinitySC-SLOWTASK,2021.2.3,Win32,59.95203837,,,,space,0.313,,,,,,,,,,j,1,1.683,,0,8,8,126,1,Humans can breathe water,j,,,
,,,,,,,,4085,2022-04-06_18h57.13.243,ImplicitInfinitySC-SLOWTASK,2021.2.3,Win32,59.95203837,,,,space,0.408,,,,,,,,,,f,1,1.59,,0,9,9,103,1,The United States is a country,f,,,
,,,,,,,,4085,2022-04-06_18h57.13.243,ImplicitInfinitySC-SLOWTASK,2021.2.3,Win32,59.95203837,,,,space,0.313,,,,,,,,,,j,1,3.098,,0,10,10,87,1,Dreams have a molecular structure,j,,,
,,,,,,,,4085,2022-04-06_18h57.13.243,ImplicitInfinitySC-SLOWTASK,2021.2.3,Win32,59.95203837,,,,space,0.506,,,,,,,,,,j,0,3.058,,0,11,11,53,1,Bricks can be put in a container,f,,,
,,,,,,,,4085,2022-04-06_18h57.13.243,ImplicitInfinitySC-SLOWTASK,2021.2.3,Win32,59.95203837,,,,space,0.349,,,,,,,,,,j,1,2.367,,0,12,12,65,1,Shadows are composed of matter,j,,,
,,,,,,,,4085,2022-04-06_18h57.13.243,ImplicitInfinitySC-SLOWTASK,2021.2.3,Win32,59.95203837,,,,space,0.468,,,,,,,,,,j,1,4.015,,0,13,13,67,1,Gravity has a molecular structure,j,,,
,,,,,,,,4085,2022-04-06_18h57.13.243,ImplicitInfinitySC-SLOWTASK,2021.2.3,Win32,59.95203837,,,,space,0.421,,,,,,,,,,f,1,2.327,,0,14,14,54,1,Dumbells are composed of matter,f,,,
,,,,,,,,4085,2022-04-06_18h57.13.243,ImplicitInfinitySC-SLOWTASK,2021.2.3,Win32,59.95203837,,,,space,0.353,,,,,,,,,,j,1,2.068,,0,15,15,116,1,Fish cannot swim in the ocean,j,,,
,,,,,,,,4085,2022-04-06_18h57.13.243,ImplicitInfinitySC-SLOWTASK,2021.2.3,Win32,59.95203837,,,,space,0.33,,,,,,,,,,f,1,2.163,,0,16,16,52,1,Frogs reproduce,f,,,
,,,,,,,,4085,2022-04-06_18h57.13.243,ImplicitInfinitySC-SLOWTASK,2021.2.3,Win32,59.95203837,,,,space,0.315,,,,,,,,,,j,1,1.866,,0,17,17,62,1,Helicopters reproduce,j,,,
,,,,,,,,4085,2022-04-06_18h57.13.243,ImplicitInfinitySC-SLOWTASK,2021.2.3,Win32,59.95203837,,,,space,0.31,,,,,,,,,,j,1,2.034,,0,18,18,124,1,The president of the United States is Oprah,j,,,
,,,,,,,,4085,2022-04-06_18h57.13.243,ImplicitInfinitySC-SLOWTASK,2021.2.3,Win32,59.95203837,,,,space,0.401,,,,,,,,,,f,1,1.762,,0,19,19,2,1,A minute has an end,f,,,
,,,,,,,,4085,2022-04-06_18h57.13.243,ImplicitInfinitySC-SLOWTASK,2021.2.3,Win32,59.95203837,,,,space,1.238,,,,,,,,,,f,1,1.457,,0,20,20,19,1,Time is endless,f,,,
,,,,,,,,4085,2022-04-06_18h57.13.243,ImplicitInfinitySC-SLOWTASK,2021.2.3,Win32,59.95203837,,,,space,0.4,,,,,,,,,,f,1,1.219,,0,21,21,49,1,Pelicans are alive,f,,,
,,,,,,,,4085,2022-04-06_18h57.13.243,ImplicitInfinitySC-SLOWTASK,2021.2.3,Win32,59.95203837,,,,space,0.331,,,,,,,,,,j,1,3.148,,0,22,22,41,1,The number five is infinite,j,,,
,,,,,,,,4085,2022-04-06_18h57.13.243,ImplicitInfinitySC-SLOWTASK,2021.2.3,Win32,59.95203837,,,,space,0.307,,,,,,,,,,j,1,1.508,,0,23,23,123,1,Mississippi is a country,j,,,
,,,,,,,,4085,2022-04-06_18h57.13.243,ImplicitInfinitySC-SLOWTASK,2021.2.3,Win32,59.95203837,,,,space,0.314,,,,,,,,,,j,1,1.623,,0,24,24,125,1,There are ninty states in the United States,j,,,
,,,,,,,,4085,2022-04-06_18h57.13.243,ImplicitInfinitySC-SLOWTASK,2021.2.3,Win32,59.95203837,,,,space,0.315,,,,,,,,,,j,1,1.626,,0,25,25,80,1,Mittens need nutrients,j,,,
,,,,,,,,4085,2022-04-06_18h57.13.243,ImplicitInfinitySC-SLOWTASK,2021.2.3,Win32,59.95203837,,,,space,0.35,,,,,,,,,,f,1,2.349,,0,26,26,73,1,Bubbles can be put in a container,f,,,
,,,,,,,,4085,2022-04-06_18h57.13.243,ImplicitInfinitySC-SLOWTASK,2021.2.3,Win32,59.95203837,,,,space,0.321,,,,,,,,,,j,1,1.848,,0,27,27,1,1,A minute is infinite,j,,,
,,,,,,,,4085,2022-04-06_18h57.13.243,ImplicitInfinitySC-SLOWTASK,2021.2.3,Win32,59.95203837,,,,space,0.33,,,,,,,,,,j,1,3.064,,0,28,28,84,1,Silence is composed of matter,j,,,
,,,,,,,,4085,2022-04-06_18h57.13.243,ImplicitInfinitySC-SLOWTASK,2021.2.3,Win32,59.95203837,,,,space,0.411,,,,,,,,,,f,0,1.514,,0,29,29,24,1,Space is finite,j,,,
,,,,,,,,4085,2022-04-06_18h57.13.243,ImplicitInfinitySC-SLOWTASK,2021.2.3,Win32,59.95203837,,,,space,0.417,,,,,,,,,,f,1,1.388,,0,30,30,51,1,Tigers reproduce,f,,,
,,,,,,,,4085,2022-04-06_18h57.13.243,ImplicitInfinitySC-SLOWTASK,2021.2.3,Win32,59.95203837,,,,space,0.379,,,,,,,,,,f,1,2.761,,0,31,31,35,1,Numbers are endless,f,,,
,,,,,,,,4085,2022-04-06_18h57.13.243,ImplicitInfinitySC-SLOWTASK,2021.2.3,Win32,59.95203837,,,,space,0.43,,,,,,,,,,f,1,1.88,,0,32,32,42,1,The number five has an end,f,,,
,,,,,,,,4085,2022-04-06_18h57.13.243,ImplicitInfinitySC-SLOWTASK,2021.2.3,Win32,59.95203837,,,,space,0.363,,,,,,,,,,j,1,1.352,,0,33,33,119,1,A motorcycle is a person,j,,,
,,,,,,,,4085,2022-04-06_18h57.13.243,ImplicitInfinitySC-SLOWTASK,2021.2.3,Win32,59.95203837,,,,space,0.384,,,,,,,,,,f,1,1.323,,0,34,34,92,1,Dinosaurs are extinct,f,,,
,,,,,,,,4085,2022-04-06_18h57.13.243,ImplicitInfinitySC-SLOWTASK,2021.2.3,Win32,59.95203837,,,,space,0.367,,,,,,,,,,j,1,3.029,,0,35,35,3,1,A minute is endless,j,,,
,,,,,,,,4085,2022-04-06_18h57.13.243,ImplicitInfinitySC-SLOWTASK,2021.2.3,Win32,59.95203837,,,,space,0.407,,,,,,,,,,f,0,1.796,,0,36,36,32,1,Numbers are finite,j,,,
,,,,,,,,4085,2022-04-06_18h57.13.243,ImplicitInfinitySC-SLOWTASK,2021.2.3,Win32,59.95203837,,,,space,0.408,,,,,,,,,,f,1,1.406,,0,37,37,27,1,Space is endless,f,,,
,,,,,,,,4085,2022-04-06_18h57.13.243,ImplicitInfinitySC-SLOWTASK,2021.2.3,Win32,59.95203837,,,,space,0.335,,,,,,,,,,j,1,1.791,,0,38,38,60,1,Robots need nutrients,j,,,
,,,,,,,,4085,2022-04-06_18h57.13.243,ImplicitInfinitySC-SLOWTASK,2021.2.3,Win32,59.95203837,,,,space,0.331,,,,,,,,,,j,0,1.207,,0,39,39,69,1,Bacteria are alive,f,,,
,,,,,,,,4085,2022-04-06_18h57.13.243,ImplicitInfinitySC-SLOWTASK,2021.2.3,Win32,59.95203837,,,,space,2.812,,,,,,,,,,j,0,1.389,space,0,40,40,21,1,Time can go on forever,f,1.28,,
,,,,,,,,4085,2022-04-06_18h57.13.243,ImplicitInfinitySC-SLOWTASK,2021.2.3,Win32,59.95203837,,,,space,0.341,,,,,,,,,,j,1,4.066,,0,41,41,112,1,Dinosaurs are not extinct,j,,,
,,,,,,,,4085,2022-04-06_18h57.13.243,ImplicitInfinitySC-SLOWTASK,2021.2.3,Win32,59.95203837,,,,space,0.391,,,,,,,,,,f,1,3.119,,0,42,42,105,1,There are fifty states in the United States,f,,,
,,,,,,,,4085,2022-04-06_18h57.13.243,ImplicitInfinitySC-SLOWTASK,2021.2.3,Win32,59.95203837,,,,space,0.362,,,,,,,,,,f,1,2.177,,0,43,43,25,1,Space is infinite,f,,,
,,,,,,,,4085,2022-04-06_18h57.13.243,ImplicitInfinitySC-SLOWTASK,2021.2.3,Win32,59.95203837,,,,space,0.399,,,,,,,,,,f,1,1.899,,0,44,44,89,1,A square is a shape,f,,,
,,,,,,,,4085,2022-04-06_18h57.13.243,ImplicitInfinitySC-SLOWTASK,2021.2.3,Win32,59.95203837,,,,space,0.403,,,,,,,,,,j,1,2.004,,0,45,45,28,1,Space cannot go on forever,j,,,
,,,,,,,,4085,2022-04-06_18h57.13.243,ImplicitInfinitySC-SLOWTASK,2021.2.3,Win32,59.95203837,,,,space,0.451,,,,,,,,,,f,1,2.131,,0,46,46,37,1,Numbers can go on forever,f,,,
,,,,,,,,4085,2022-04-06_18h57.13.243,ImplicitInfinitySC-SLOWTASK,2021.2.3,Win32,59.95203837,,,,space,0.378,,,,,,,,,,f,1,2.3,,0,47,47,76,1,Pollen has a molecular structure,f,,,
,,,,,,,,4085,2022-04-06_18h57.13.243,ImplicitInfinitySC-SLOWTASK,2021.2.3,Win32,59.95203837,,,,space,0.321,,,,,,,,,,j,0,4.127,,0,48,48,47,1,The number five can always be further divided,f,,,
,,,,,,,,4085,2022-04-06_18h57.13.243,ImplicitInfinitySC-SLOWTASK,2021.2.3,Win32,59.95203837,,,,space,0.386,,,,,,,,,,f,1,1.873,,0,49,49,74,1,Foam is composed of matter,f,,,
,,,,,,,,4085,2022-04-06_18h57.13.243,ImplicitInfinitySC-SLOWTASK,2021.2.3,Win32,59.95203837,,,,space,0.405,,,,,,,,,,j,0,2.388,,0,50,50,31,1,Space can always be further divided,f,,,
,,,,,,,,4085,2022-04-06_18h57.13.243,ImplicitInfinitySC-SLOWTASK,2021.2.3,Win32,59.95203837,,,,space,0.369,,,,,,,,,,f,1,1.658,,0,51,51,88,1,This sentence is written in English,f,,,
,,,,,,,,4085,2022-04-06_18h57.13.243,ImplicitInfinitySC-SLOWTASK,2021.2.3,Win32,59.95203837,,,,space,0.349,,,,,,,,,,f,1,1.829,,0,52,52,57,1,Rocks have a molecular structure,f,,,
,,,,,,,,4085,2022-04-06_18h57.13.243,ImplicitInfinitySC-SLOWTASK,2021.2.3,Win32,59.95203837,,,,space,0.333,,,,,,,,,,j,1,1.596,,0,53,53,83,1,Songs can be put in a container,j,,,
,,,,,,,,4085,2022-04-06_18h57.13.243,ImplicitInfinitySC-SLOWTASK,2021.2.3,Win32,59.95203837,,,,space,0.37,,,,,,,,,,f,1,2.542,,0,54,54,12,1,An inch cannot go on forever,f,,,
,,,,,,,,4085,2022-04-06_18h57.13.243,ImplicitInfinitySC-SLOWTASK,2021.2.3,Win32,59.95203837,,,,space,0.38,,,,,,,,,,f,0,1.689,,0,55,55,86,1,Words have a molecular structure,j,,,
,,,,,,,,4085,2022-04-06_18h57.13.243,ImplicitInfinitySC-SLOWTASK,2021.2.3,Win32,59.95203837,,,,space,0.363,,,,,,,,,,f,1,1.468,,0,56,56,71,1,Oaks reproduce,f,,,
,,,,,,,,4085,2022-04-06_18h57.13.243,ImplicitInfinitySC-SLOWTASK,2021.2.3,Win32,59.95203837,,,,space,0.4,,,,,,,,,,j,1,2.078,,0,57,57,63,1,Color can be put in a container,j,,,
,,,,,,,,4085,2022-04-06_18h57.13.243,ImplicitInfinitySC-SLOWTASK,2021.2.3,Win32,59.95203837,,,,space,1.302,,,,,,,,,,f,0,1.429,,0,58,58,111,1,A circle is a flavor,j,,,
,,,,,,,,4085,2022-04-06_18h57.13.243,ImplicitInfinitySC-SLOWTASK,2021.2.3,Win32,59.95203837,,,,space,0.351,,,,,,,,,,f,1,1.882,,0,59,59,29,1,Space can go on forever,f,,,
,,,,,,,,4085,2022-04-06_18h57.13.243,ImplicitInfinitySC-SLOWTASK,2021.2.3,Win32,59.95203837,,,,space,0.347,,,,,,,,,,j,1,2.506,,0,60,60,85,1,Thoughts are composed of matter,j,,,
,,,,,,,,4085,2022-04-06_18h57.13.243,ImplicitInfinitySC-SLOWTASK,2021.2.3,Win32,59.95203837,,,,space,0.341,,,,,,,,,,j,1,1.504,,0,61,61,11,1,An inch is endless,j,,,
,,,,,,,,4085,2022-04-06_18h57.13.243,ImplicitInfinitySC-SLOWTASK,2021.2.3,Win32,59.95203837,,,,space,0.351,,,,,,,,,,j,1,2.12,,0,62,62,59,1,Comets are alive,j,,,
,,,,,,,,4085,2022-04-06_18h57.13.243,ImplicitInfinitySC-SLOWTASK,2021.2.3,Win32,59.95203837,,,,space,0.356,,,,,,,,,,j,1,3.283,,0,63,63,14,1,An inch cannot always be further divided,j,,,
,,,,,,,,4085,2022-04-06_18h57.13.243,ImplicitInfinitySC-SLOWTASK,2021.2.3,Win32,59.95203837,,,,space,0.382,,,,,,,,,,j,1,1.881,,0,64,64,61,1,Sailboats reproduce,j,,,
,,,,,,,,4085,2022-04-06_18h57.13.243,ImplicitInfinitySC-SLOWTASK,2021.2.3,Win32,59.95203837,,,,space,0.352,,,,,,,,,,j,1,1.662,,0,65,65,58,1,Clocks are alive,j,,,
,,,,,,,,4085,2022-04-06_18h57.13.243,ImplicitInfinitySC-SLOWTASK,2021.2.3,Win32,59.95203837,,,,space,0.382,,,,,,,,,,f,1,2.202,,0,66,66,4,1,A minute cannot go on forever,f,,,
,,,,,,,,4085,2022-04-06_18h57.13.243,ImplicitInfinitySC-SLOWTASK,2021.2.3,Win32,59.95203837,,,,space,0.343,,,,,,,,,,j,1,2.498,,0,67,67,108,1,This sentence is written in Spanish,j,,,
,,,,,,,,4085,2022-04-06_18h57.13.243,ImplicitInfinitySC-SLOWTASK,2021.2.3,Win32,59.95203837,,,,space,0.384,,,,,,,,,,j,1,1.648,,0,68,68,120,1,A truck is an animal,j,,,
,,,,,,,,4085,2022-04-06_18h57.13.243,ImplicitInfinitySC-SLOWTASK,2021.2.3,Win32,59.95203837,,,,space,0.383,,,,,,,,,,j,1,4.63,,0,69,69,22,1,Time cannot always be further divided,j,,,
,,,,,,,,4085,2022-04-06_18h57.13.243,ImplicitInfinitySC-SLOWTASK,2021.2.3,Win32,59.95203837,,,,space,0.414,,,,,,,,,,j,1,2.087,,0,70,70,121,1,Jupiter is the planet we live on,j,,,
,,,,,,,,4085,2022-04-06_18h57.13.243,ImplicitInfinitySC-SLOWTASK,2021.2.3,Win32,59.95203837,,,,space,0.359,,,,,,,,,,j,1,1.978,,0,71,71,117,1,Dolphins cannot swim in the ocean,j,,,
,,,,,,,,4085,2022-04-06_18h57.13.243,ImplicitInfinitySC-SLOWTASK,2021.2.3,Win32,59.95203837,,,,space,0.48,,,,,,,,,,f,1,2.514,,0,72,72,98,1,A clock is used to tell time,f,,,
,,,,,,,,4085,2022-04-06_18h57.13.243,ImplicitInfinitySC-SLOWTASK,2021.2.3,Win32,59.95203837,,,,space,0.408,,,,,,,,,,f,1,2.44,,0,73,73,106,1,Humans cannot breathe water,f,,,
,,,,,,,,4085,2022-04-06_18h57.13.243,ImplicitInfinitySC-SLOWTASK,2021.2.3,Win32,59.95203837,,,,space,0.762,,,,,,,,,,j,1,1.175,,0,74,74,81,1,Tables reproduce,j,,,
,,,,,,,,4085,2022-04-06_18h57.13.243,ImplicitInfinitySC-SLOWTASK,2021.2.3,Win32,59.95203837,,,,space,0.389,,,,,,,,,,f,1,1.697,,0,75,75,97,1,Dolphins can swim in the ocean,f,,,
,,,,,,,,4085,2022-04-06_18h57.13.243,ImplicitInfinitySC-SLOWTASK,2021.2.3,Win32,59.95203837,,,,space,0.353,,,,,,,,,,j,1,1.749,,0,76,76,43,1,The number five is endless,j,,,
,,,,,,,,4085,2022-04-06_18h57.13.243,ImplicitInfinitySC-SLOWTASK,2021.2.3,Win32,59.95203837,,,,space,0.532,,,,,,,,,,f,1,1.416,,0,77,77,96,1,Fish can swim in the ocean,f,,,
,,,,,,,,4085,2022-04-06_18h57.13.243,ImplicitInfinitySC-SLOWTASK,2021.2.3,Win32,59.95203837,,,,space,0.423,,,,,,,,,,j,1,2.989,,0,78,78,20,1,Time cannot go on forever,j,,,
,,,,,,,,4085,2022-04-06_18h57.13.243,ImplicitInfinitySC-SLOWTASK,2021.2.3,Win32,59.95203837,,,,space,0.457,,,,,,,,,,f,1,2.619,,0,79,79,75,1,Frost is composed of matter,f,,,
,,,,,,,,4085,2022-04-06_18h57.13.243,ImplicitInfinitySC-SLOWTASK,2021.2.3,Win32,59.95203837,,,,space,0.451,,,,,,,,,,f,1,1.988,,0,80,80,44,1,The number five cannot go on forever,f,,,
,,,,,,,,4085,2022-04-06_18h57.13.243,ImplicitInfinitySC-SLOWTASK,2021.2.3,Win32,59.95203837,,,,,,,,,,,,,,,,,,,,,,,,,,,space,13.742
