SlowInstrKey.keys,SlowInstrKey.rt,SlowInstrLoop.thisRepN,SlowInstrLoop.thisTrialN,SlowInstrLoop.thisN,SlowInstrLoop.thisIndex,SlowInstrLoop.ran,SlowInstructions,participant,date,expName,psychopyVersion,OS,frameRate,key_resp_5.keys,key_resp_5.corr,key_resp_5.rt,key_resp_4.keys,key_resp_4.rt,slowpracticeloop.thisRepN,slowpracticeloop.thisTrialN,slowpracticeloop.thisN,slowpracticeloop.thisIndex,slowpracticeloop.ran,practicetext,practicecorrect,key_resp_3.keys,key_resp_3.rt,SlowKey.keys,SlowKey.corr,SlowKey.rt,encouragekey.keys,SlowLoop.thisRepN,SlowLoop.thisTrialN,SlowLoop.thisN,SlowLoop.thisIndex,SlowLoop.ran,Statement,Correct,encouragekey.rt,endstudykey.keys
space,9.4627,0,0,0,0,1,"You will be shown a total of 80 statements pertaining to mathematics, science, and social concepts. Your task is to determine whether each statement is true or false. Some statements will be difficult and some will be easier.  We do not expect you to know the correct answer for all 80 statements.  Press SPACE to Continue",4633,2022-04-06_16h01.41.846,ImplicitInfinitySC-SLOWTASK,2021.2.3,MacIntel,59.84082341,,,,,,,,,,,,,,,,,,,,,,,,,,,
space,9.6088,0,1,1,1,1,"We urge you to try your best and take your time. Each statement will appear on your screen and you will have 10 seconds to decide if it is true or false. You will hear a beep at 6 seconds that will prompt you to respond within the next 4 seconds. If you fail to respond within this time, the trial will be counted as incorrect and the next statement will appear. Press SPACE to continue",4633,2022-04-06_16h01.41.846,ImplicitInfinitySC-SLOWTASK,2021.2.3,MacIntel,59.84082341,,,,,,,,,,,,,,,,,,,,,,,,,,,
space,11.1421,0,2,2,2,1,"If the statement is true, you will press the “F” key on your keyboard with your left pointer finger; if the statement is false, you will press the “J” key on your keyboard with your right pointer finger. Press SPACE to continue",4633,2022-04-06_16h01.41.846,ImplicitInfinitySC-SLOWTASK,2021.2.3,MacIntel,59.84082341,,,,,,,,,,,,,,,,,,,,,,,,,,,
space,2.6745,0,3,3,3,1,Take your time and go slowly! You have 10 seconds to answer! Press SPACE to continue. ,4633,2022-04-06_16h01.41.846,ImplicitInfinitySC-SLOWTASK,2021.2.3,MacIntel,59.84082341,,,,,,,,,,,,,,,,,,,,,,,,,,,
,,,,,,,,4633,2022-04-06_16h01.41.846,ImplicitInfinitySC-SLOWTASK,2021.2.3,MacIntel,59.84082341,j,1,3.8869,space,1.2754,0,0,0,7,1,The Earth is a star,j,,,,,,,,,,,,,,,
,,,,,,,,4633,2022-04-06_16h01.41.846,ImplicitInfinitySC-SLOWTASK,2021.2.3,MacIntel,59.84082341,f,1,3.0305,space,0.8906,0,1,1,4,1,Humans cannot breathe water,f,,,,,,,,,,,,,,,
,,,,,,,,4633,2022-04-06_16h01.41.846,ImplicitInfinitySC-SLOWTASK,2021.2.3,MacIntel,59.84082341,j,1,2.0224,space,0.4851,0,2,2,6,1,Jupiter is the planet we live on,j,,,,,,,,,,,,,,,
,,,,,,,,4633,2022-04-06_16h01.41.846,ImplicitInfinitySC-SLOWTASK,2021.2.3,MacIntel,59.84082341,f,1,1.9721,space,0.5525,0,3,3,2,1,Magenta is a color,f,,,,,,,,,,,,,,,
,,,,,,,,4633,2022-04-06_16h01.41.846,ImplicitInfinitySC-SLOWTASK,2021.2.3,MacIntel,59.84082341,f,1,1.6322,space,0.3555,0,4,4,0,1,A circle is a shape,f,,,,,,,,,,,,,,,
,,,,,,,,4633,2022-04-06_16h01.41.846,ImplicitInfinitySC-SLOWTASK,2021.2.3,MacIntel,59.84082341,j,1,1.5429,space,0.2699,0,5,5,5,1,A truck is an animal,j,,,,,,,,,,,,,,,
,,,,,,,,4633,2022-04-06_16h01.41.846,ImplicitInfinitySC-SLOWTASK,2021.2.3,MacIntel,59.84082341,f,1,1.8385,space,0.3849,0,6,6,1,1,Dinosaurs are extinct,f,,,,,,,,,,,,,,,
,,,,,,,,4633,2022-04-06_16h01.41.846,ImplicitInfinitySC-SLOWTASK,2021.2.3,MacIntel,59.84082341,f,1,1.4737,space,0.381,0,7,7,3,1,A clock is used to tell time,f,,,,,,,,,,,,,,,
,,,,,,,,4633,2022-04-06_16h01.41.846,ImplicitInfinitySC-SLOWTASK,2021.2.3,MacIntel,59.84082341,j,1,1.3358,space,0.4353,0,8,8,9,1,Humans cannot eat food,j,,,,,,,,,,,,,,,
,,,,,,,,4633,2022-04-06_16h01.41.846,ImplicitInfinitySC-SLOWTASK,2021.2.3,MacIntel,59.84082341,j,1,1.7719,space,0.3339,0,9,9,8,1,Mississippi is a country,j,,,,,,,,,,,,,,,
,,,,,,,,4633,2022-04-06_16h01.41.846,ImplicitInfinitySC-SLOWTASK,2021.2.3,MacIntel,59.84082341,,,,space,0.6189,,,,,,,,space,5.3708,j,1,2.1043,,0,0,0,85,1,Thoughts are composed of matter,j,,
,,,,,,,,4633,2022-04-06_16h01.41.846,ImplicitInfinitySC-SLOWTASK,2021.2.3,MacIntel,59.84082341,,,,space,0.607,,,,,,,,,,j,1,1.3093,,0,1,1,122,1,The Earth is a star,j,,
,,,,,,,,4633,2022-04-06_16h01.41.846,ImplicitInfinitySC-SLOWTASK,2021.2.3,MacIntel,59.84082341,,,,space,0.5049,,,,,,,,,,f,1,1.2352,,0,2,2,107,1,A pencil is used to write,f,,
,,,,,,,,4633,2022-04-06_16h01.41.846,ImplicitInfinitySC-SLOWTASK,2021.2.3,MacIntel,59.84082341,,,,space,0.5562,,,,,,,,,,f,1,2.6295,,0,3,3,105,1,There are fifty states in the United States,f,,
,,,,,,,,4633,2022-04-06_16h01.41.846,ImplicitInfinitySC-SLOWTASK,2021.2.3,MacIntel,59.84082341,,,,space,0.4413,,,,,,,,,,f,1,3.8106,,0,4,4,44,1,The number five cannot go on forever,f,,
,,,,,,,,4633,2022-04-06_16h01.41.846,ImplicitInfinitySC-SLOWTASK,2021.2.3,MacIntel,59.84082341,,,,space,0.4604,,,,,,,,,,j,1,1.6271,,0,5,5,5,1,A minute can go on forever,j,,
,,,,,,,,4633,2022-04-06_16h01.41.846,ImplicitInfinitySC-SLOWTASK,2021.2.3,MacIntel,59.84082341,,,,space,0.7363,,,,,,,,,,j,0,3.9116,,0,6,6,17,1,Time is infinite,f,,
,,,,,,,,4633,2022-04-06_16h01.41.846,ImplicitInfinitySC-SLOWTASK,2021.2.3,MacIntel,59.84082341,,,,space,0.3047,,,,,,,,,,j,1,1.9061,,0,7,7,116,1,Fish cannot swim in the ocean,j,,
,,,,,,,,4633,2022-04-06_16h01.41.846,ImplicitInfinitySC-SLOWTASK,2021.2.3,MacIntel,59.84082341,,,,space,0.4908,,,,,,,,,,j,1,3.4729,,0,8,8,38,1,Numbers cannot always be further divided,j,,
,,,,,,,,4633,2022-04-06_16h01.41.846,ImplicitInfinitySC-SLOWTASK,2021.2.3,MacIntel,59.84082341,,,,space,0.6589,,,,,,,,,,f,1,4.0611,,0,9,9,33,1,Numbers are infinite,f,,
,,,,,,,,4633,2022-04-06_16h01.41.846,ImplicitInfinitySC-SLOWTASK,2021.2.3,MacIntel,59.84082341,,,,space,0.4793,,,,,,,,,,f,1,1.635,,0,10,10,102,1,The Earth is a planet,f,,
,,,,,,,,4633,2022-04-06_16h01.41.846,ImplicitInfinitySC-SLOWTASK,2021.2.3,MacIntel,59.84082341,,,,space,0.4515,,,,,,,,,,f,1,1.404,,0,11,11,92,1,Dinosaurs are extinct,f,,
,,,,,,,,4633,2022-04-06_16h01.41.846,ImplicitInfinitySC-SLOWTASK,2021.2.3,MacIntel,59.84082341,,,,space,0.6475,,,,,,,,,,j,1,2.3299,,0,12,12,84,1,Silence is composed of matter,j,,
,,,,,,,,4633,2022-04-06_16h01.41.846,ImplicitInfinitySC-SLOWTASK,2021.2.3,MacIntel,59.84082341,,,,space,0.7917,,,,,,,,,,j,1,4.917,,0,13,13,16,1,Time is finite,j,,
,,,,,,,,4633,2022-04-06_16h01.41.846,ImplicitInfinitySC-SLOWTASK,2021.2.3,MacIntel,59.84082341,,,,space,0.4746,,,,,,,,,,f,1,2.3803,,0,14,14,10,1,An inch has an end,f,,
,,,,,,,,4633,2022-04-06_16h01.41.846,ImplicitInfinitySC-SLOWTASK,2021.2.3,MacIntel,59.84082341,,,,space,0.5528,,,,,,,,,,j,1,1.7382,,0,15,15,65,1,Shadows are composed of matter,j,,
,,,,,,,,4633,2022-04-06_16h01.41.846,ImplicitInfinitySC-SLOWTASK,2021.2.3,MacIntel,59.84082341,,,,space,0.4718,,,,,,,,,,f,1,3.3598,,0,16,16,47,1,The number five can always be further divided,f,,
,,,,,,,,4633,2022-04-06_16h01.41.846,ImplicitInfinitySC-SLOWTASK,2021.2.3,MacIntel,59.84082341,,,,space,0.4683,,,,,,,,,,f,1,1.856,,0,17,17,55,1,Concrete is composed of matter,f,,
,,,,,,,,4633,2022-04-06_16h01.41.846,ImplicitInfinitySC-SLOWTASK,2021.2.3,MacIntel,59.84082341,,,,space,0.3514,,,,,,,,,,j,1,1.8893,,0,18,18,3,1,A minute is endless,j,,
,,,,,,,,4633,2022-04-06_16h01.41.846,ImplicitInfinitySC-SLOWTASK,2021.2.3,MacIntel,59.84082341,,,,space,0.6702,,,,,,,,,,j,1,2.0904,,0,19,19,126,1,Humans can breathe water,j,,
,,,,,,,,4633,2022-04-06_16h01.41.846,ImplicitInfinitySC-SLOWTASK,2021.2.3,MacIntel,59.84082341,,,,space,0.5565,,,,,,,,,,f,1,1.9366,,0,20,20,88,1,This sentence is written in English,f,,
,,,,,,,,4633,2022-04-06_16h01.41.846,ImplicitInfinitySC-SLOWTASK,2021.2.3,MacIntel,59.84082341,,,,space,0.488,,,,,,,,,,f,1,1.859,,0,21,21,106,1,Humans cannot breathe water,f,,
,,,,,,,,4633,2022-04-06_16h01.41.846,ImplicitInfinitySC-SLOWTASK,2021.2.3,MacIntel,59.84082341,,,,space,0.4349,,,,,,,,,,j,1,1.3383,,0,22,22,115,1,Yellow is an animal,j,,
,,,,,,,,4633,2022-04-06_16h01.41.846,ImplicitInfinitySC-SLOWTASK,2021.2.3,MacIntel,59.84082341,,,,space,0.4355,,,,,,,,,,f,1,1.0537,,0,23,23,93,1,Magenta is a color,f,,
,,,,,,,,4633,2022-04-06_16h01.41.846,ImplicitInfinitySC-SLOWTASK,2021.2.3,MacIntel,59.84082341,,,,space,0.6726,,,,,,,,,,j,1,4.3784,,0,24,24,6,1,A minute cannot always be further divided,j,,
,,,,,,,,4633,2022-04-06_16h01.41.846,ImplicitInfinitySC-SLOWTASK,2021.2.3,MacIntel,59.84082341,,,,space,0.8214,,,,,,,,,,f,1,3.1107,,0,25,25,25,1,Space is infinite,f,,
,,,,,,,,4633,2022-04-06_16h01.41.846,ImplicitInfinitySC-SLOWTASK,2021.2.3,MacIntel,59.84082341,,,,space,0.39,,,,,,,,,,j,1,1.6659,,0,26,26,43,1,The number five is endless,j,,
,,,,,,,,4633,2022-04-06_16h01.41.846,ImplicitInfinitySC-SLOWTASK,2021.2.3,MacIntel,59.84082341,,,,space,0.468,,,,,,,,,,f,1,1.3537,,0,27,27,98,1,A clock is used to tell time,f,,
,,,,,,,,4633,2022-04-06_16h01.41.846,ImplicitInfinitySC-SLOWTASK,2021.2.3,MacIntel,59.84082341,,,,space,0.366,,,,,,,,,,j,1,2.6553,,0,28,28,32,1,Numbers are finite,j,,
,,,,,,,,4633,2022-04-06_16h01.41.846,ImplicitInfinitySC-SLOWTASK,2021.2.3,MacIntel,59.84082341,,,,space,0.3682,,,,,,,,,,j,1,1.5212,,0,29,29,9,1,An inch is infinite,j,,
,,,,,,,,4633,2022-04-06_16h01.41.846,ImplicitInfinitySC-SLOWTASK,2021.2.3,MacIntel,59.84082341,,,,space,0.7907,,,,,,,,,,f,1,2.8576,,0,30,30,35,1,Numbers are endless,f,,
,,,,,,,,4633,2022-04-06_16h01.41.846,ImplicitInfinitySC-SLOWTASK,2021.2.3,MacIntel,59.84082341,,,,space,0.4561,,,,,,,,,,f,1,1.9123,,0,31,31,0,1,A minute is finite,f,,
,,,,,,,,4633,2022-04-06_16h01.41.846,ImplicitInfinitySC-SLOWTASK,2021.2.3,MacIntel,59.84082341,,,,space,0.6905,,,,,,,,,,f,1,1.8713,,0,32,32,68,1,Algae is alive,f,,
,,,,,,,,4633,2022-04-06_16h01.41.846,ImplicitInfinitySC-SLOWTASK,2021.2.3,MacIntel,59.84082341,,,,space,0.4528,,,,,,,,,,f,1,1.3867,,0,33,33,104,1,The United States has a president,f,,
,,,,,,,,4633,2022-04-06_16h01.41.846,ImplicitInfinitySC-SLOWTASK,2021.2.3,MacIntel,59.84082341,,,,space,0.5304,,,,,,,,,,f,1,1.5495,,0,34,34,100,1,A truck is a vehicle,f,,
,,,,,,,,4633,2022-04-06_16h01.41.846,ImplicitInfinitySC-SLOWTASK,2021.2.3,MacIntel,59.84082341,,,,space,0.4203,,,,,,,,,,j,1,1.8185,,0,35,35,41,1,The number five is infinite,j,,
,,,,,,,,4633,2022-04-06_16h01.41.846,ImplicitInfinitySC-SLOWTASK,2021.2.3,MacIntel,59.84082341,,,,space,0.5184,,,,,,,,,,f,1,1.2313,,0,36,36,49,1,Pelicans are alive,f,,
,,,,,,,,4633,2022-04-06_16h01.41.846,ImplicitInfinitySC-SLOWTASK,2021.2.3,MacIntel,59.84082341,,,,space,0.3514,,,,,,,,,,j,1,1.8545,,0,37,37,66,1,Music has a molecular structure,j,,
,,,,,,,,4633,2022-04-06_16h01.41.846,ImplicitInfinitySC-SLOWTASK,2021.2.3,MacIntel,59.84082341,,,,space,0.4521,,,,,,,,,,j,1,1.9942,,0,38,38,81,1,Tables reproduce,j,,
,,,,,,,,4633,2022-04-06_16h01.41.846,ImplicitInfinitySC-SLOWTASK,2021.2.3,MacIntel,59.84082341,,,,space,0.5019,,,,,,,,,,j,1,1.3363,,0,39,39,87,1,Dreams have a molecular structure,j,,
,,,,,,,,4633,2022-04-06_16h01.41.846,ImplicitInfinitySC-SLOWTASK,2021.2.3,MacIntel,59.84082341,,,,space,1.5308,,,,,,,,,,j,1,1.9417,space,0,40,40,58,1,Clocks are alive,j,0.2507,
,,,,,,,,4633,2022-04-06_16h01.41.846,ImplicitInfinitySC-SLOWTASK,2021.2.3,MacIntel,59.84082341,,,,space,0.5048,,,,,,,,,,f,1,3.5098,,0,41,41,31,1,Space can always be further divided,f,,
,,,,,,,,4633,2022-04-06_16h01.41.846,ImplicitInfinitySC-SLOWTASK,2021.2.3,MacIntel,59.84082341,,,,space,0.5019,,,,,,,,,,f,1,1.7889,,0,42,42,27,1,Space is endless,f,,
,,,,,,,,4633,2022-04-06_16h01.41.846,ImplicitInfinitySC-SLOWTASK,2021.2.3,MacIntel,59.84082341,,,,space,0.5189,,,,,,,,,,f,1,1.2869,,0,43,43,2,1,A minute has an end,f,,
,,,,,,,,4633,2022-04-06_16h01.41.846,ImplicitInfinitySC-SLOWTASK,2021.2.3,MacIntel,59.84082341,,,,space,0.6883,,,,,,,,,,f,1,2.4017,,0,44,44,71,1,Oaks reproduce,f,,
,,,,,,,,4633,2022-04-06_16h01.41.846,ImplicitInfinitySC-SLOWTASK,2021.2.3,MacIntel,59.84082341,,,,space,0.4358,,,,,,,,,,j,1,1.2701,,0,45,45,123,1,Mississippi is a country,j,,
,,,,,,,,4633,2022-04-06_16h01.41.846,ImplicitInfinitySC-SLOWTASK,2021.2.3,MacIntel,59.84082341,,,,space,0.5452,,,,,,,,,,f,1,1.6751,,0,46,46,15,1,An inch can be always further divided,f,,
,,,,,,,,4633,2022-04-06_16h01.41.846,ImplicitInfinitySC-SLOWTASK,2021.2.3,MacIntel,59.84082341,,,,space,0.4075,,,,,,,,,,j,1,1.2881,,0,47,47,121,1,Jupiter is the planet we live on,j,,
,,,,,,,,4633,2022-04-06_16h01.41.846,ImplicitInfinitySC-SLOWTASK,2021.2.3,MacIntel,59.84082341,,,,space,0.4744,,,,,,,,,,f,1,1.3403,,0,48,48,103,1,The United States is a country,f,,
,,,,,,,,4633,2022-04-06_16h01.41.846,ImplicitInfinitySC-SLOWTASK,2021.2.3,MacIntel,59.84082341,,,,space,0.4519,,,,,,,,,,f,1,1.7831,,0,49,49,8,1,An inch is finite,f,,
,,,,,,,,4633,2022-04-06_16h01.41.846,ImplicitInfinitySC-SLOWTASK,2021.2.3,MacIntel,59.84082341,,,,space,0.4011,,,,,,,,,,f,1,1.0368,,0,50,50,94,1,Orange is a color,f,,
,,,,,,,,4633,2022-04-06_16h01.41.846,ImplicitInfinitySC-SLOWTASK,2021.2.3,MacIntel,59.84082341,,,,space,0.4625,,,,,,,,,,f,0,3.3256,,0,51,51,26,1,Space has an end,j,,
,,,,,,,,4633,2022-04-06_16h01.41.846,ImplicitInfinitySC-SLOWTASK,2021.2.3,MacIntel,59.84082341,,,,space,0.3198,,,,,,,,,,f,1,2.0867,,0,52,52,76,1,Pollen has a molecular structure,f,,
,,,,,,,,4633,2022-04-06_16h01.41.846,ImplicitInfinitySC-SLOWTASK,2021.2.3,MacIntel,59.84082341,,,,space,0.7702,,,,,,,,,,f,1,2.3072,,0,53,53,75,1,Frost is composed of matter,f,,
,,,,,,,,4633,2022-04-06_16h01.41.846,ImplicitInfinitySC-SLOWTASK,2021.2.3,MacIntel,59.84082341,,,,space,0.5011,,,,,,,,,,f,1,1.505,,0,54,54,97,1,Dolphins can swim in the ocean,f,,
,,,,,,,,4633,2022-04-06_16h01.41.846,ImplicitInfinitySC-SLOWTASK,2021.2.3,MacIntel,59.84082341,,,,space,0.5029,,,,,,,,,,f,1,1.3196,,0,55,55,50,1,Turtles need nutrients,f,,
,,,,,,,,4633,2022-04-06_16h01.41.846,ImplicitInfinitySC-SLOWTASK,2021.2.3,MacIntel,59.84082341,,,,space,0.5727,,,,,,,,,,f,1,0.9527,,0,56,56,52,1,Frogs reproduce,f,,
,,,,,,,,4633,2022-04-06_16h01.41.846,ImplicitInfinitySC-SLOWTASK,2021.2.3,MacIntel,59.84082341,,,,space,0.5186,,,,,,,,,,f,0,3.9778,,0,57,57,24,1,Space is finite,j,,
,,,,,,,,4633,2022-04-06_16h01.41.846,ImplicitInfinitySC-SLOWTASK,2021.2.3,MacIntel,59.84082341,,,,space,0.4309,,,,,,,,,,f,1,0.9366,,0,58,58,48,1,Crocodiles are alive,f,,
,,,,,,,,4633,2022-04-06_16h01.41.846,ImplicitInfinitySC-SLOWTASK,2021.2.3,MacIntel,59.84082341,,,,space,0.3602,,,,,,,,,,f,1,3.463,,0,59,59,77,1,Saliva has a molecular structure,f,,
,,,,,,,,4633,2022-04-06_16h01.41.846,ImplicitInfinitySC-SLOWTASK,2021.2.3,MacIntel,59.84082341,,,,space,0.4358,,,,,,,,,,f,1,1.676,,0,60,60,53,1,Bricks can be put in a container,f,,
,,,,,,,,4633,2022-04-06_16h01.41.846,ImplicitInfinitySC-SLOWTASK,2021.2.3,MacIntel,59.84082341,,,,space,0.3557,,,,,,,,,,j,1,2.5134,,0,61,61,30,1,Space cannot always be further divided,j,,
,,,,,,,,4633,2022-04-06_16h01.41.846,ImplicitInfinitySC-SLOWTASK,2021.2.3,MacIntel,59.84082341,,,,space,0.447,,,,,,,,,,j,1,1.2701,,0,62,62,60,1,Robots need nutrients,j,,
,,,,,,,,4633,2022-04-06_16h01.41.846,ImplicitInfinitySC-SLOWTASK,2021.2.3,MacIntel,59.84082341,,,,space,0.4857,,,,,,,,,,j,1,2.3288,,0,63,63,36,1,Numbers cannot go on forever,j,,
,,,,,,,,4633,2022-04-06_16h01.41.846,ImplicitInfinitySC-SLOWTASK,2021.2.3,MacIntel,59.84082341,,,,space,0.4225,,,,,,,,,,j,1,1.488,,0,64,64,120,1,A truck is an animal,j,,
,,,,,,,,4633,2022-04-06_16h01.41.846,ImplicitInfinitySC-SLOWTASK,2021.2.3,MacIntel,59.84082341,,,,space,0.4061,,,,,,,,,,f,1,1.359,,0,65,65,37,1,Numbers can go on forever,f,,
,,,,,,,,4633,2022-04-06_16h01.41.846,ImplicitInfinitySC-SLOWTASK,2021.2.3,MacIntel,59.84082341,,,,space,0.4519,,,,,,,,,,j,1,1.1368,,0,66,66,62,1,Helicopters reproduce,j,,
,,,,,,,,4633,2022-04-06_16h01.41.846,ImplicitInfinitySC-SLOWTASK,2021.2.3,MacIntel,59.84082341,,,,space,0.4912,,,,,,,,,,j,1,2.5914,,0,67,67,83,1,Songs can be put in a container,j,,
,,,,,,,,4633,2022-04-06_16h01.41.846,ImplicitInfinitySC-SLOWTASK,2021.2.3,MacIntel,59.84082341,,,,space,0.4076,,,,,,,,,,f,1,1.1262,,0,68,68,89,1,A square is a shape,f,,
,,,,,,,,4633,2022-04-06_16h01.41.846,ImplicitInfinitySC-SLOWTASK,2021.2.3,MacIntel,59.84082341,,,,space,0.4698,,,,,,,,,,f,0,2.992,,0,69,69,63,1,Color can be put in a container,j,,
,,,,,,,,4633,2022-04-06_16h01.41.846,ImplicitInfinitySC-SLOWTASK,2021.2.3,MacIntel,59.84082341,,,,space,0.5017,,,,,,,,,,f,1,2.3228,,0,70,70,73,1,Bubbles can be put in a container,f,,
,,,,,,,,4633,2022-04-06_16h01.41.846,ImplicitInfinitySC-SLOWTASK,2021.2.3,MacIntel,59.84082341,,,,space,0.4243,,,,,,,,,,f,1,2.5422,,0,71,71,69,1,Bacteria are alive,f,,
,,,,,,,,4633,2022-04-06_16h01.41.846,ImplicitInfinitySC-SLOWTASK,2021.2.3,MacIntel,59.84082341,,,,space,0.4377,,,,,,,,,,j,0,2.8636,,0,72,72,29,1,Space can go on forever,f,,
,,,,,,,,4633,2022-04-06_16h01.41.846,ImplicitInfinitySC-SLOWTASK,2021.2.3,MacIntel,59.84082341,,,,space,0.5081,,,,,,,,,,f,1,2.4291,,0,73,73,56,1,Diamonds have a molecular structure,f,,
,,,,,,,,4633,2022-04-06_16h01.41.846,ImplicitInfinitySC-SLOWTASK,2021.2.3,MacIntel,59.84082341,,,,space,0.4182,,,,,,,,,,j,1,1.0033,,0,74,74,119,1,A motorcycle is a person,j,,
,,,,,,,,4633,2022-04-06_16h01.41.846,ImplicitInfinitySC-SLOWTASK,2021.2.3,MacIntel,59.84082341,,,,space,0.4967,,,,,,,,,,j,1,1.9056,,0,75,75,34,1,Numbers have an end,j,,
,,,,,,,,4633,2022-04-06_16h01.41.846,ImplicitInfinitySC-SLOWTASK,2021.2.3,MacIntel,59.84082341,,,,space,0.4348,,,,,,,,,,j,1,1.3044,,0,76,76,117,1,Dolphins cannot swim in the ocean,j,,
,,,,,,,,4633,2022-04-06_16h01.41.846,ImplicitInfinitySC-SLOWTASK,2021.2.3,MacIntel,59.84082341,,,,space,0.5196,,,,,,,,,,j,1,1.3372,,0,77,77,86,1,Words have a molecular structure,j,,
,,,,,,,,4633,2022-04-06_16h01.41.846,ImplicitInfinitySC-SLOWTASK,2021.2.3,MacIntel,59.84082341,,,,space,0.4232,,,,,,,,,,f,1,1.6516,,0,78,78,96,1,Fish can swim in the ocean,f,,
,,,,,,,,4633,2022-04-06_16h01.41.846,ImplicitInfinitySC-SLOWTASK,2021.2.3,MacIntel,59.84082341,,,,space,0.4185,,,,,,,,,,j,1,1.1041,,0,79,79,111,1,A circle is a flavor,j,,
,,,,,,,,4633,2022-04-06_16h01.41.846,ImplicitInfinitySC-SLOWTASK,2021.2.3,MacIntel,59.84082341,,,,space,0.6051,,,,,,,,,,j,0,4.112,,0,80,80,19,1,Time is endless,f,,
,,,,,,,,4633,2022-04-06_16h01.41.846,ImplicitInfinitySC-SLOWTASK,2021.2.3,MacIntel,59.84082341,,,,,,,,,,,,,,,,,,,,,,,,,,,
