SlowInstrKey.keys,SlowInstrKey.rt,SlowInstrLoop.thisRepN,SlowInstrLoop.thisTrialN,SlowInstrLoop.thisN,SlowInstrLoop.thisIndex,SlowInstrLoop.ran,SlowInstructions,participant,date,expName,psychopyVersion,OS,frameRate,key_resp_5.keys,key_resp_5.corr,key_resp_4.keys,slowpracticeloop.thisRepN,slowpracticeloop.thisTrialN,slowpracticeloop.thisN,slowpracticeloop.thisIndex,slowpracticeloop.ran,practicetext,practicecorrect,key_resp_4.rt,key_resp_5.rt,key_resp_3.keys,key_resp_3.rt,SlowKey.keys,SlowKey.corr,SlowKey.rt,encouragekey.keys,SlowLoop.thisRepN,SlowLoop.thisTrialN,SlowLoop.thisN,SlowLoop.thisIndex,SlowLoop.ran,Statement,Correct,encouragekey.rt,endstudykey.keys
space,12.0918,0,0,0,0,1,"You will be shown a total of 80 statements pertaining to mathematics, science, and social concepts. Your task is to determine whether each statement is true or false. Some statements will be difficult and some will be easier.  We do not expect you to know the correct answer for all 80 statements.  Press SPACE to Continue",4640,2022-04-06_19h11.04.028,ImplicitInfinitySC-SLOWTASK,2021.2.3,Win32,75.01875469,,,,,,,,,,,,,,,,,,,,,,,,,,,
space,9.3253,0,1,1,1,1,"We urge you to try your best and take your time. Each statement will appear on your screen and you will have 10 seconds to decide if it is true or false. You will hear a beep at 6 seconds that will prompt you to respond within the next 4 seconds. If you fail to respond within this time, the trial will be counted as incorrect and the next statement will appear. Press SPACE to continue",4640,2022-04-06_19h11.04.028,ImplicitInfinitySC-SLOWTASK,2021.2.3,Win32,75.01875469,,,,,,,,,,,,,,,,,,,,,,,,,,,
,,0,2,2,2,1,"If the statement is true, you will press the “F” key on your keyboard with your left pointer finger; if the statement is false, you will press the “J” key on your keyboard with your right pointer finger. Press SPACE to continue",4640,2022-04-06_19h11.04.028,ImplicitInfinitySC-SLOWTASK,2021.2.3,Win32,75.01875469,,,,,,,,,,,,,,,,,,,,,,,,,,,
,,0,3,3,3,1,Take your time and go slowly! You have 10 seconds to answer! Press SPACE to continue. ,4640,2022-04-06_19h11.04.028,ImplicitInfinitySC-SLOWTASK,2021.2.3,Win32,75.01875469,,,,,,,,,,,,,,,,,,,,,,,,,,,
,,,,,,,,4640,2022-04-06_19h11.04.028,ImplicitInfinitySC-SLOWTASK,2021.2.3,Win32,75.01875469,,0,,0,0,0,3,1,A clock is used to tell time,f,,,,,,,,,,,,,,,,,
,,,,,,,,4640,2022-04-06_19h11.04.028,ImplicitInfinitySC-SLOWTASK,2021.2.3,Win32,75.01875469,,0,,0,1,1,0,1,A circle is a shape,f,,,,,,,,,,,,,,,,,
,,,,,,,,4640,2022-04-06_19h11.04.028,ImplicitInfinitySC-SLOWTASK,2021.2.3,Win32,75.01875469,,0,,0,2,2,4,1,Humans cannot breathe water,f,,,,,,,,,,,,,,,,,
,,,,,,,,4640,2022-04-06_19h11.04.028,ImplicitInfinitySC-SLOWTASK,2021.2.3,Win32,75.01875469,,0,space,0,3,3,7,1,The Earth is a star,j,2.2195,,,,,,,,,,,,,,,,
,,,,,,,,4640,2022-04-06_19h11.04.028,ImplicitInfinitySC-SLOWTASK,2021.2.3,Win32,75.01875469,j,1,,0,4,4,8,1,Mississippi is a country,j,,2.5893,,,,,,,,,,,,,,,
,,,,,,,,4640,2022-04-06_19h11.04.028,ImplicitInfinitySC-SLOWTASK,2021.2.3,Win32,75.01875469,j,1,,0,5,5,9,1,Humans cannot eat food,j,,3.4166,,,,,,,,,,,,,,,
,,,,,,,,4640,2022-04-06_19h11.04.028,ImplicitInfinitySC-SLOWTASK,2021.2.3,Win32,75.01875469,j,1,,0,6,6,5,1,A truck is an animal,j,,3.1371,,,,,,,,,,,,,,,
,,,,,,,,4640,2022-04-06_19h11.04.028,ImplicitInfinitySC-SLOWTASK,2021.2.3,Win32,75.01875469,f,1,space,0,7,7,1,1,Dinosaurs are extinct,f,5.9262,2.4966,,,,,,,,,,,,,,,
,,,,,,,,4640,2022-04-06_19h11.04.028,ImplicitInfinitySC-SLOWTASK,2021.2.3,Win32,75.01875469,f,1,space,0,8,8,2,1,Magenta is a color,f,0.8069,3.9756,,,,,,,,,,,,,,,
,,,,,,,,4640,2022-04-06_19h11.04.028,ImplicitInfinitySC-SLOWTASK,2021.2.3,Win32,75.01875469,j,1,space,0,9,9,6,1,Jupiter is the planet we live on,j,0.7993,2.9821,,,,,,,,,,,,,,,
,,,,,,,,4640,2022-04-06_19h11.04.028,ImplicitInfinitySC-SLOWTASK,2021.2.3,Win32,75.01875469,,,space,,,,,,,,0.7676,,space,10.1274,f,1,2.138,,0,0,0,48,1,Crocodiles are alive,f,,
,,,,,,,,4640,2022-04-06_19h11.04.028,ImplicitInfinitySC-SLOWTASK,2021.2.3,Win32,75.01875469,,,space,,,,,,,,0.6311,,,,j,0,5.2071,,0,1,1,74,1,Foam is composed of matter,f,,
,,,,,,,,4640,2022-04-06_19h11.04.028,ImplicitInfinitySC-SLOWTASK,2021.2.3,Win32,75.01875469,,,space,,,,,,,,0.6984,,,,f,1,2.258,,0,2,2,76,1,Pollen has a molecular structure,f,,
,,,,,,,,4640,2022-04-06_19h11.04.028,ImplicitInfinitySC-SLOWTASK,2021.2.3,Win32,75.01875469,,,space,,,,,,,,0.7122,,,,j,1,2.5765,,0,3,3,79,1,Forks are alive,j,,
,,,,,,,,4640,2022-04-06_19h11.04.028,ImplicitInfinitySC-SLOWTASK,2021.2.3,Win32,75.01875469,,,space,,,,,,,,0.2305,,,,j,1,3.3355,,0,4,4,118,1,A horse is used to tell time,j,,
,,,,,,,,4640,2022-04-06_19h11.04.028,ImplicitInfinitySC-SLOWTASK,2021.2.3,Win32,75.01875469,,,space,,,,,,,,0.6691,,,,f,0,2.0163,,0,5,5,18,1,Time has an end,j,,
,,,,,,,,4640,2022-04-06_19h11.04.028,ImplicitInfinitySC-SLOWTASK,2021.2.3,Win32,75.01875469,,,space,,,,,,,,0.2446,,,,j,1,2.3625,,0,6,6,114,1,Lightbulbs are made of clay,j,,
,,,,,,,,4640,2022-04-06_19h11.04.028,ImplicitInfinitySC-SLOWTASK,2021.2.3,Win32,75.01875469,,,space,,,,,,,,0.3269,,,,j,1,3.2169,,0,7,7,108,1,This sentence is written in Spanish,j,,
,,,,,,,,4640,2022-04-06_19h11.04.028,ImplicitInfinitySC-SLOWTASK,2021.2.3,Win32,75.01875469,,,space,,,,,,,,0.3106,,,,j,0,5.0175,,0,8,8,106,1,Humans cannot breathe water,f,,
,,,,,,,,4640,2022-04-06_19h11.04.028,ImplicitInfinitySC-SLOWTASK,2021.2.3,Win32,75.01875469,,,space,,,,,,,,0.434,,,,f,1,4.3766,,0,9,9,99,1,A motorcycle is a vehicle,f,,
,,,,,,,,4640,2022-04-06_19h11.04.028,ImplicitInfinitySC-SLOWTASK,2021.2.3,Win32,75.01875469,,,space,,,,,,,,0.2065,,,,j,1,3.1895,,0,10,10,1,1,A minute is infinite,j,,
,,,,,,,,4640,2022-04-06_19h11.04.028,ImplicitInfinitySC-SLOWTASK,2021.2.3,Win32,75.01875469,,,space,,,,,,,,0.3253,,,,f,1,1.7241,,0,11,11,104,1,The United States has a president,f,,
,,,,,,,,4640,2022-04-06_19h11.04.028,ImplicitInfinitySC-SLOWTASK,2021.2.3,Win32,75.01875469,,,space,,,,,,,,0.2322,,,,j,1,2.7382,,0,12,12,64,1,Echoes are composed of matter,j,,
,,,,,,,,4640,2022-04-06_19h11.04.028,ImplicitInfinitySC-SLOWTASK,2021.2.3,Win32,75.01875469,,,space,,,,,,,,0.3376,,,,f,1,4.4578,,0,13,13,55,1,Concrete is composed of matter,f,,
,,,,,,,,4640,2022-04-06_19h11.04.028,ImplicitInfinitySC-SLOWTASK,2021.2.3,Win32,75.01875469,,,space,,,,,,,,0.1517,,,,f,1,4.3227,,0,14,14,27,1,Space is endless,f,,
,,,,,,,,4640,2022-04-06_19h11.04.028,ImplicitInfinitySC-SLOWTASK,2021.2.3,Win32,75.01875469,,,space,,,,,,,,0.2177,,,,j,0,1.9139,,0,15,15,0,1,A minute is finite,f,,
,,,,,,,,4640,2022-04-06_19h11.04.028,ImplicitInfinitySC-SLOWTASK,2021.2.3,Win32,75.01875469,,,space,,,,,,,,0.1269,,,,f,0,3.3893,,0,16,16,16,1,Time is finite,j,,
,,,,,,,,4640,2022-04-06_19h11.04.028,ImplicitInfinitySC-SLOWTASK,2021.2.3,Win32,75.01875469,,,space,,,,,,,,0.1523,,,,j,1,3.5791,,0,17,17,109,1,A square is a color,j,,
,,,,,,,,4640,2022-04-06_19h11.04.028,ImplicitInfinitySC-SLOWTASK,2021.2.3,Win32,75.01875469,,,space,,,,,,,,0.1685,,,,j,1,1.5244,,0,18,18,60,1,Robots need nutrients,j,,
,,,,,,,,4640,2022-04-06_19h11.04.028,ImplicitInfinitySC-SLOWTASK,2021.2.3,Win32,75.01875469,,,space,,,,,,,,0.1656,,,,j,1,3.6174,,0,19,19,6,1,A minute cannot always be further divided,j,,
,,,,,,,,4640,2022-04-06_19h11.04.028,ImplicitInfinitySC-SLOWTASK,2021.2.3,Win32,75.01875469,,,space,,,,,,,,0.1487,,,,f,1,2.9163,,0,20,20,15,1,An inch can be always further divided,f,,
,,,,,,,,4640,2022-04-06_19h11.04.028,ImplicitInfinitySC-SLOWTASK,2021.2.3,Win32,75.01875469,,,space,,,,,,,,0.2183,,,,j,1,1.335,,0,21,21,120,1,A truck is an animal,j,,
,,,,,,,,4640,2022-04-06_19h11.04.028,ImplicitInfinitySC-SLOWTASK,2021.2.3,Win32,75.01875469,,,space,,,,,,,,0.1769,,,,j,1,2.177,,0,22,22,116,1,Fish cannot swim in the ocean,j,,
,,,,,,,,4640,2022-04-06_19h11.04.028,ImplicitInfinitySC-SLOWTASK,2021.2.3,Win32,75.01875469,,,space,,,,,,,,0.4319,,,,f,1,1.4163,,0,23,23,100,1,A truck is a vehicle,f,,
,,,,,,,,4640,2022-04-06_19h11.04.028,ImplicitInfinitySC-SLOWTASK,2021.2.3,Win32,75.01875469,,,space,,,,,,,,0.1813,,,,f,0,2.9919,,0,24,24,14,1,An inch cannot always be further divided,j,,
,,,,,,,,4640,2022-04-06_19h11.04.028,ImplicitInfinitySC-SLOWTASK,2021.2.3,Win32,75.01875469,,,space,,,,,,,,0.1274,,,,j,1,2.5362,,0,25,25,80,1,Mittens need nutrients,j,,
,,,,,,,,4640,2022-04-06_19h11.04.028,ImplicitInfinitySC-SLOWTASK,2021.2.3,Win32,75.01875469,,,space,,,,,,,,0.1537,,,,j,1,1.8582,,0,26,26,66,1,Music has a molecular structure,j,,
,,,,,,,,4640,2022-04-06_19h11.04.028,ImplicitInfinitySC-SLOWTASK,2021.2.3,Win32,75.01875469,,,space,,,,,,,,0.2164,,,,f,1,2.1554,,0,27,27,102,1,The Earth is a planet,f,,
,,,,,,,,4640,2022-04-06_19h11.04.028,ImplicitInfinitySC-SLOWTASK,2021.2.3,Win32,75.01875469,,,space,,,,,,,,0.2175,,,,f,1,1.6214,,0,28,28,50,1,Turtles need nutrients,f,,
,,,,,,,,4640,2022-04-06_19h11.04.028,ImplicitInfinitySC-SLOWTASK,2021.2.3,Win32,75.01875469,,,space,,,,,,,,0.1072,,,,j,1,8.3558,,0,29,29,46,1,The number five cannot always be further divided,j,,
,,,,,,,,4640,2022-04-06_19h11.04.028,ImplicitInfinitySC-SLOWTASK,2021.2.3,Win32,75.01875469,,,space,,,,,,,,0.1783,,,,f,1,4.0437,,0,30,30,4,1,A minute cannot go on forever,f,,
,,,,,,,,4640,2022-04-06_19h11.04.028,ImplicitInfinitySC-SLOWTASK,2021.2.3,Win32,75.01875469,,,space,,,,,,,,0.1693,,,,j,1,1.3354,,0,31,31,78,1,Hammers are alive,j,,
,,,,,,,,4640,2022-04-06_19h11.04.028,ImplicitInfinitySC-SLOWTASK,2021.2.3,Win32,75.01875469,,,space,,,,,,,,0.1364,,,,j,0,5.3635,,0,32,32,25,1,Space is infinite,f,,
,,,,,,,,4640,2022-04-06_19h11.04.028,ImplicitInfinitySC-SLOWTASK,2021.2.3,Win32,75.01875469,,,space,,,,,,,,0.2047,,,,f,1,1.6173,,0,33,33,70,1,Grass needs nutrients,f,,
,,,,,,,,4640,2022-04-06_19h11.04.028,ImplicitInfinitySC-SLOWTASK,2021.2.3,Win32,75.01875469,,,space,,,,,,,,0.2063,,,,f,1,1.7629,,0,34,34,39,1,Numbers can always be further divided,f,,
,,,,,,,,4640,2022-04-06_19h11.04.028,ImplicitInfinitySC-SLOWTASK,2021.2.3,Win32,75.01875469,,,space,,,,,,,,0.1136,,,,j,1,2.3162,,0,35,35,38,1,Numbers cannot always be further divided,j,,
,,,,,,,,4640,2022-04-06_19h11.04.028,ImplicitInfinitySC-SLOWTASK,2021.2.3,Win32,75.01875469,,,space,,,,,,,,0.2176,,,,f,0,4.0429,,0,36,36,67,1,Gravity has a molecular structure,j,,
,,,,,,,,4640,2022-04-06_19h11.04.028,ImplicitInfinitySC-SLOWTASK,2021.2.3,Win32,75.01875469,,,space,,,,,,,,0.205,,,,j,1,1.9475,,0,37,37,124,1,The president of the United States is Oprah,j,,
,,,,,,,,4640,2022-04-06_19h11.04.028,ImplicitInfinitySC-SLOWTASK,2021.2.3,Win32,75.01875469,,,space,,,,,,,,0.1506,,,,j,1,2.5508,,0,38,38,121,1,Jupiter is the planet we live on,j,,
,,,,,,,,4640,2022-04-06_19h11.04.028,ImplicitInfinitySC-SLOWTASK,2021.2.3,Win32,75.01875469,,,space,,,,,,,,0.2051,,,,f,1,1.7236,,0,39,39,51,1,Tigers reproduce,f,,
,,,,,,,,4640,2022-04-06_19h11.04.028,ImplicitInfinitySC-SLOWTASK,2021.2.3,Win32,75.01875469,,,space,,,,,,,,2.2285,,,,f,1,2.5645,space,0,40,40,2,1,A minute has an end,f,5.0484,
,,,,,,,,4640,2022-04-06_19h11.04.028,ImplicitInfinitySC-SLOWTASK,2021.2.3,Win32,75.01875469,,,space,,,,,,,,0.1661,,,,f,1,1.4453,,0,41,41,92,1,Dinosaurs are extinct,f,,
,,,,,,,,4640,2022-04-06_19h11.04.028,ImplicitInfinitySC-SLOWTASK,2021.2.3,Win32,75.01875469,,,space,,,,,,,,0.2187,,,,f,1,2.8314,,0,42,42,31,1,Space can always be further divided,f,,
,,,,,,,,4640,2022-04-06_19h11.04.028,ImplicitInfinitySC-SLOWTASK,2021.2.3,Win32,75.01875469,,,space,,,,,,,,0.2055,,,,f,1,1.9652,,0,43,43,37,1,Numbers can go on forever,f,,
,,,,,,,,4640,2022-04-06_19h11.04.028,ImplicitInfinitySC-SLOWTASK,2021.2.3,Win32,75.01875469,,,space,,,,,,,,0.1253,,,,j,0,3.3038,,0,44,44,17,1,Time is infinite,f,,
,,,,,,,,4640,2022-04-06_19h11.04.028,ImplicitInfinitySC-SLOWTASK,2021.2.3,Win32,75.01875469,,,space,,,,,,,,0.1511,,,,f,1,1.9637,,0,45,45,35,1,Numbers are endless,f,,
,,,,,,,,4640,2022-04-06_19h11.04.028,ImplicitInfinitySC-SLOWTASK,2021.2.3,Win32,75.01875469,,,space,,,,,,,,0.1781,,,,j,1,1.5529,,0,46,46,112,1,Dinosaurs are not extinct,j,,
,,,,,,,,4640,2022-04-06_19h11.04.028,ImplicitInfinitySC-SLOWTASK,2021.2.3,Win32,75.01875469,,,space,,,,,,,,0.1773,,,,f,1,1.6717,,0,47,47,56,1,Diamonds have a molecular structure,f,,
,,,,,,,,4640,2022-04-06_19h11.04.028,ImplicitInfinitySC-SLOWTASK,2021.2.3,Win32,75.01875469,,,space,,,,,,,,0.1501,,,,j,1,2.0314,,0,48,48,127,1,A zebra is used to write,j,,
,,,,,,,,4640,2022-04-06_19h11.04.028,ImplicitInfinitySC-SLOWTASK,2021.2.3,Win32,75.01875469,,,space,,,,,,,,0.1111,,,,j,1,1.9363,,0,49,49,34,1,Numbers have an end,j,,
,,,,,,,,4640,2022-04-06_19h11.04.028,ImplicitInfinitySC-SLOWTASK,2021.2.3,Win32,75.01875469,,,space,,,,,,,,0.1378,,,,j,1,2.9783,,0,50,50,13,1,An inch can go on forever,j,,
,,,,,,,,4640,2022-04-06_19h11.04.028,ImplicitInfinitySC-SLOWTASK,2021.2.3,Win32,75.01875469,,,space,,,,,,,,0.1661,,,,j,1,1.8572,,0,51,51,111,1,A circle is a flavor,j,,
,,,,,,,,4640,2022-04-06_19h11.04.028,ImplicitInfinitySC-SLOWTASK,2021.2.3,Win32,75.01875469,,,space,,,,,,,,0.1265,,,,j,1,2.5246,,0,52,52,36,1,Numbers cannot go on forever,j,,
,,,,,,,,4640,2022-04-06_19h11.04.028,ImplicitInfinitySC-SLOWTASK,2021.2.3,Win32,75.01875469,,,space,,,,,,,,0.088,,,,j,1,2.6841,,0,53,53,87,1,Dreams have a molecular structure,j,,
,,,,,,,,4640,2022-04-06_19h11.04.028,ImplicitInfinitySC-SLOWTASK,2021.2.3,Win32,75.01875469,,,space,,,,,,,,0.1766,,,,f,1,1.6438,,0,54,54,98,1,A clock is used to tell time,f,,
,,,,,,,,4640,2022-04-06_19h11.04.028,ImplicitInfinitySC-SLOWTASK,2021.2.3,Win32,75.01875469,,,space,,,,,,,,0.1142,,,,j,1,2.2034,,0,55,55,5,1,A minute can go on forever,j,,
,,,,,,,,4640,2022-04-06_19h11.04.028,ImplicitInfinitySC-SLOWTASK,2021.2.3,Win32,75.01875469,,,space,,,,,,,,0.1383,,,,f,1,2.7234,,0,56,56,12,1,An inch cannot go on forever,f,,
,,,,,,,,4640,2022-04-06_19h11.04.028,ImplicitInfinitySC-SLOWTASK,2021.2.3,Win32,75.01875469,,,space,,,,,,,,0.0909,,,,f,1,3.4432,,0,57,57,42,1,The number five has an end,f,,
,,,,,,,,4640,2022-04-06_19h11.04.028,ImplicitInfinitySC-SLOWTASK,2021.2.3,Win32,75.01875469,,,space,,,,,,,,0.1388,,,,f,1,2.6502,,0,58,58,91,1,A circle is a shape,f,,
,,,,,,,,4640,2022-04-06_19h11.04.028,ImplicitInfinitySC-SLOWTASK,2021.2.3,Win32,75.01875469,,,space,,,,,,,,0.0665,,,,j,1,1.9325,,0,59,59,126,1,Humans can breathe water,j,,
,,,,,,,,4640,2022-04-06_19h11.04.028,ImplicitInfinitySC-SLOWTASK,2021.2.3,Win32,75.01875469,,,space,,,,,,,,0.086,,,,j,1,1.7101,,0,60,60,115,1,Yellow is an animal,j,,
,,,,,,,,4640,2022-04-06_19h11.04.028,ImplicitInfinitySC-SLOWTASK,2021.2.3,Win32,75.01875469,,,space,,,,,,,,0.1658,,,,f,1,1.7769,,0,61,61,69,1,Bacteria are alive,f,,
,,,,,,,,4640,2022-04-06_19h11.04.028,ImplicitInfinitySC-SLOWTASK,2021.2.3,Win32,75.01875469,,,space,,,,,,,,0.1112,,,,f,0,5.6325,,0,62,62,32,1,Numbers are finite,j,,
,,,,,,,,4640,2022-04-06_19h11.04.028,ImplicitInfinitySC-SLOWTASK,2021.2.3,Win32,75.01875469,,,space,,,,,,,,0.2765,,,,f,1,1.498,,0,63,63,103,1,The United States is a country,f,,
,,,,,,,,4640,2022-04-06_19h11.04.028,ImplicitInfinitySC-SLOWTASK,2021.2.3,Win32,75.01875469,,,space,,,,,,,,0.1384,,,,f,1,2.6456,,0,64,64,105,1,There are fifty states in the United States,f,,
,,,,,,,,4640,2022-04-06_19h11.04.028,ImplicitInfinitySC-SLOWTASK,2021.2.3,Win32,75.01875469,,,space,,,,,,,,0.1664,,,,f,1,1.1102,,0,65,65,52,1,Frogs reproduce,f,,
,,,,,,,,4640,2022-04-06_19h11.04.028,ImplicitInfinitySC-SLOWTASK,2021.2.3,Win32,75.01875469,,,space,,,,,,,,0.1515,,,,j,1,3.5893,,0,66,66,41,1,The number five is infinite,j,,
,,,,,,,,4640,2022-04-06_19h11.04.028,ImplicitInfinitySC-SLOWTASK,2021.2.3,Win32,75.01875469,,,space,,,,,,,,0.1908,,,,f,1,2.5382,,0,67,67,88,1,This sentence is written in English,f,,
,,,,,,,,4640,2022-04-06_19h11.04.028,ImplicitInfinitySC-SLOWTASK,2021.2.3,Win32,75.01875469,,,space,,,,,,,,0.2142,,,,j,1,1.6694,,0,68,68,26,1,Space has an end,j,,
,,,,,,,,4640,2022-04-06_19h11.04.028,ImplicitInfinitySC-SLOWTASK,2021.2.3,Win32,75.01875469,,,space,,,,,,,,0.0988,,,,j,1,1.8029,,0,69,69,11,1,An inch is endless,j,,
,,,,,,,,4640,2022-04-06_19h11.04.028,ImplicitInfinitySC-SLOWTASK,2021.2.3,Win32,75.01875469,,,space,,,,,,,,0.165,,,,f,1,1.5251,,0,70,70,57,1,Rocks have a molecular structure,f,,
,,,,,,,,4640,2022-04-06_19h11.04.028,ImplicitInfinitySC-SLOWTASK,2021.2.3,Win32,75.01875469,,,space,,,,,,,,0.1108,,,,j,1,1.8853,,0,71,71,113,1,Magenta is a shape,j,,
,,,,,,,,4640,2022-04-06_19h11.04.028,ImplicitInfinitySC-SLOWTASK,2021.2.3,Win32,75.01875469,,,space,,,,,,,,0.1386,,,,f,1,1.9643,,0,72,72,44,1,The number five cannot go on forever,f,,
,,,,,,,,4640,2022-04-06_19h11.04.028,ImplicitInfinitySC-SLOWTASK,2021.2.3,Win32,75.01875469,,,space,,,,,,,,0.1539,,,,j,1,1.6848,,0,73,73,123,1,Mississippi is a country,j,,
,,,,,,,,4640,2022-04-06_19h11.04.028,ImplicitInfinitySC-SLOWTASK,2021.2.3,Win32,75.01875469,,,space,,,,,,,,0.1254,,,,j,1,2.0177,,0,74,74,119,1,A motorcycle is a person,j,,
,,,,,,,,4640,2022-04-06_19h11.04.028,ImplicitInfinitySC-SLOWTASK,2021.2.3,Win32,75.01875469,,,space,,,,,,,,0.1778,,,,f,1,2.2041,,0,75,75,23,1,Time can always be further divided,f,,
,,,,,,,,4640,2022-04-06_19h11.04.028,ImplicitInfinitySC-SLOWTASK,2021.2.3,Win32,75.01875469,,,space,,,,,,,,0.098,,,,j,1,3.0671,,0,76,76,84,1,Silence is composed of matter,j,,
,,,,,,,,4640,2022-04-06_19h11.04.028,ImplicitInfinitySC-SLOWTASK,2021.2.3,Win32,75.01875469,,,space,,,,,,,,0.085,,,,j,1,2.0578,,0,77,77,59,1,Comets are alive,j,,
,,,,,,,,4640,2022-04-06_19h11.04.028,ImplicitInfinitySC-SLOWTASK,2021.2.3,Win32,75.01875469,,,space,,,,,,,,0.1257,,,,j,1,1.4833,,0,78,78,110,1,A triangle is an animal,j,,
,,,,,,,,4640,2022-04-06_19h11.04.028,ImplicitInfinitySC-SLOWTASK,2021.2.3,Win32,75.01875469,,,space,,,,,,,,0.1654,,,,f,1,1.3778,,0,79,79,49,1,Pelicans are alive,f,,
,,,,,,,,4640,2022-04-06_19h11.04.028,ImplicitInfinitySC-SLOWTASK,2021.2.3,Win32,75.01875469,,,space,,,,,,,,0.1529,,,,f,1,1.7634,,0,80,80,54,1,Dumbells are composed of matter,f,,
,,,,,,,,4640,2022-04-06_19h11.04.028,ImplicitInfinitySC-SLOWTASK,2021.2.3,Win32,75.01875469,,,,,,,,,,,,,,,,,,,,,,,,,,,
