SlowInstrKey.keys,SlowInstrKey.rt,SlowInstrLoop.thisRepN,SlowInstrLoop.thisTrialN,SlowInstrLoop.thisN,SlowInstrLoop.thisIndex,SlowInstrLoop.ran,SlowInstructions,participant,date,expName,psychopyVersion,OS,frameRate,key_resp_5.keys,key_resp_5.corr,key_resp_5.rt,key_resp_4.keys,key_resp_4.rt,slowpracticeloop.thisRepN,slowpracticeloop.thisTrialN,slowpracticeloop.thisN,slowpracticeloop.thisIndex,slowpracticeloop.ran,practicetext,practicecorrect,key_resp_3.keys,key_resp_3.rt,SlowKey.keys,SlowKey.corr,SlowKey.rt,encouragekey.keys,SlowLoop.thisRepN,SlowLoop.thisTrialN,SlowLoop.thisN,SlowLoop.thisIndex,SlowLoop.ran,Statement,Correct,encouragekey.rt,endstudykey.keys,endstudykey.rt
space,16.3699,0,0,0,0,1,"You will be shown a total of 80 statements pertaining to mathematics, science, and social concepts. Your task is to determine whether each statement is true or false. Some statements will be difficult and some will be easier.  We do not expect you to know the correct answer for all 80 statements.  Press SPACE to Continue",4801,2022-04-06_19h10.50.822,ImplicitInfinitySC-SLOWTASK,2021.2.3,Win32,69.88608568,,,,,,,,,,,,,,,,,,,,,,,,,,,,
space,13.9156,0,1,1,1,1,"We urge you to try your best and take your time. Each statement will appear on your screen and you will have 10 seconds to decide if it is true or false. You will hear a beep at 6 seconds that will prompt you to respond within the next 4 seconds. If you fail to respond within this time, the trial will be counted as incorrect and the next statement will appear. Press SPACE to continue",4801,2022-04-06_19h10.50.822,ImplicitInfinitySC-SLOWTASK,2021.2.3,Win32,69.88608568,,,,,,,,,,,,,,,,,,,,,,,,,,,,
space,20.2764,0,2,2,2,1,"If the statement is true, you will press the “F” key on your keyboard with your left pointer finger; if the statement is false, you will press the “J” key on your keyboard with your right pointer finger. Press SPACE to continue",4801,2022-04-06_19h10.50.822,ImplicitInfinitySC-SLOWTASK,2021.2.3,Win32,69.88608568,,,,,,,,,,,,,,,,,,,,,,,,,,,,
space,1.4854,0,3,3,3,1,Take your time and go slowly! You have 10 seconds to answer! Press SPACE to continue. ,4801,2022-04-06_19h10.50.822,ImplicitInfinitySC-SLOWTASK,2021.2.3,Win32,69.88608568,,,,,,,,,,,,,,,,,,,,,,,,,,,,
,,,,,,,,4801,2022-04-06_19h10.50.822,ImplicitInfinitySC-SLOWTASK,2021.2.3,Win32,69.88608568,f,1,2.798,space,1.0326,0,0,0,3,1,A clock is used to tell time,f,,,,,,,,,,,,,,,,
,,,,,,,,4801,2022-04-06_19h10.50.822,ImplicitInfinitySC-SLOWTASK,2021.2.3,Win32,69.88608568,f,1,1.412,space,0.5671,0,1,1,1,1,Dinosaurs are extinct,f,,,,,,,,,,,,,,,,
,,,,,,,,4801,2022-04-06_19h10.50.822,ImplicitInfinitySC-SLOWTASK,2021.2.3,Win32,69.88608568,j,1,1.6498,space,0.5511,0,2,2,7,1,The Earth is a star,j,,,,,,,,,,,,,,,,
,,,,,,,,4801,2022-04-06_19h10.50.822,ImplicitInfinitySC-SLOWTASK,2021.2.3,Win32,69.88608568,j,1,1.9801,space,0.4503,0,3,3,6,1,Jupiter is the planet we live on,j,,,,,,,,,,,,,,,,
,,,,,,,,4801,2022-04-06_19h10.50.822,ImplicitInfinitySC-SLOWTASK,2021.2.3,Win32,69.88608568,j,1,1.3442,space,0.2992,0,4,4,5,1,A truck is an animal,j,,,,,,,,,,,,,,,,
,,,,,,,,4801,2022-04-06_19h10.50.822,ImplicitInfinitySC-SLOWTASK,2021.2.3,Win32,69.88608568,j,1,1.3316,space,0.4503,0,5,5,9,1,Humans cannot eat food,j,,,,,,,,,,,,,,,,
,,,,,,,,4801,2022-04-06_19h10.50.822,ImplicitInfinitySC-SLOWTASK,2021.2.3,Win32,69.88608568,j,1,1.2012,space,0.2971,0,6,6,8,1,Mississippi is a country,j,,,,,,,,,,,,,,,,
,,,,,,,,4801,2022-04-06_19h10.50.822,ImplicitInfinitySC-SLOWTASK,2021.2.3,Win32,69.88608568,f,1,2.7113,space,0.5826,0,7,7,4,1,Humans cannot breathe water,f,,,,,,,,,,,,,,,,
,,,,,,,,4801,2022-04-06_19h10.50.822,ImplicitInfinitySC-SLOWTASK,2021.2.3,Win32,69.88608568,f,1,1.3156,space,0.2721,0,8,8,0,1,A circle is a shape,f,,,,,,,,,,,,,,,,
,,,,,,,,4801,2022-04-06_19h10.50.822,ImplicitInfinitySC-SLOWTASK,2021.2.3,Win32,69.88608568,f,1,0.9813,space,0.2765,0,9,9,2,1,Magenta is a color,f,,,,,,,,,,,,,,,,
,,,,,,,,4801,2022-04-06_19h10.50.822,ImplicitInfinitySC-SLOWTASK,2021.2.3,Win32,69.88608568,,,,space,0.5789,,,,,,,,space,9.8009,j,1,1.4895,,0,0,0,60,1,Robots need nutrients,j,,,
,,,,,,,,4801,2022-04-06_19h10.50.822,ImplicitInfinitySC-SLOWTASK,2021.2.3,Win32,69.88608568,,,,space,0.5669,,,,,,,,,,f,1,3.0513,,0,1,1,76,1,Pollen has a molecular structure,f,,,
,,,,,,,,4801,2022-04-06_19h10.50.822,ImplicitInfinitySC-SLOWTASK,2021.2.3,Win32,69.88608568,,,,space,0.3981,,,,,,,,,,f,1,2.6327,,0,2,2,55,1,Concrete is composed of matter,f,,,
,,,,,,,,4801,2022-04-06_19h10.50.822,ImplicitInfinitySC-SLOWTASK,2021.2.3,Win32,69.88608568,,,,space,0.3014,,,,,,,,,,f,1,1.5836,,0,3,3,89,1,A square is a shape,f,,,
,,,,,,,,4801,2022-04-06_19h10.50.822,ImplicitInfinitySC-SLOWTASK,2021.2.3,Win32,69.88608568,,,,space,0.6922,,,,,,,,,,f,1,4.1012,,0,4,4,73,1,Bubbles can be put in a container,f,,,
,,,,,,,,4801,2022-04-06_19h10.50.822,ImplicitInfinitySC-SLOWTASK,2021.2.3,Win32,69.88608568,,,,space,0.3397,,,,,,,,,,j,1,1.6631,,0,5,5,59,1,Comets are alive,j,,,
,,,,,,,,4801,2022-04-06_19h10.50.822,ImplicitInfinitySC-SLOWTASK,2021.2.3,Win32,69.88608568,,,,space,0.9746,,,,,,,,,,j,0,4.1361,,0,6,6,33,1,Numbers are infinite,f,,,
,,,,,,,,4801,2022-04-06_19h10.50.822,ImplicitInfinitySC-SLOWTASK,2021.2.3,Win32,69.88608568,,,,space,0.5835,,,,,,,,,,j,0,5.1805,,0,7,7,57,1,Rocks have a molecular structure,f,,,
,,,,,,,,4801,2022-04-06_19h10.50.822,ImplicitInfinitySC-SLOWTASK,2021.2.3,Win32,69.88608568,,,,space,0.5354,,,,,,,,,,f,1,2.4323,,0,8,8,88,1,This sentence is written in English,f,,,
,,,,,,,,4801,2022-04-06_19h10.50.822,ImplicitInfinitySC-SLOWTASK,2021.2.3,Win32,69.88608568,,,,space,0.3832,,,,,,,,,,f,1,1.0686,,0,9,9,102,1,The Earth is a planet,f,,,
,,,,,,,,4801,2022-04-06_19h10.50.822,ImplicitInfinitySC-SLOWTASK,2021.2.3,Win32,69.88608568,,,,space,0.3175,,,,,,,,,,j,1,1.3341,,0,10,10,124,1,The president of the United States is Oprah,j,,,
,,,,,,,,4801,2022-04-06_19h10.50.822,ImplicitInfinitySC-SLOWTASK,2021.2.3,Win32,69.88608568,,,,space,0.5681,,,,,,,,,,j,1,1.5914,,0,11,11,3,1,A minute is endless,j,,,
,,,,,,,,4801,2022-04-06_19h10.50.822,ImplicitInfinitySC-SLOWTASK,2021.2.3,Win32,69.88608568,,,,space,0.3186,,,,,,,,,,j,0,1.3668,,0,12,12,72,1,Mushrooms reproduce,f,,,
,,,,,,,,4801,2022-04-06_19h10.50.822,ImplicitInfinitySC-SLOWTASK,2021.2.3,Win32,69.88608568,,,,space,0.3043,,,,,,,,,,j,1,1.7303,,0,13,13,122,1,The Earth is a star,j,,,
,,,,,,,,4801,2022-04-06_19h10.50.822,ImplicitInfinitySC-SLOWTASK,2021.2.3,Win32,69.88608568,,,,space,0.4147,,,,,,,,,,j,1,2.8134,,0,14,14,86,1,Words have a molecular structure,j,,,
,,,,,,,,4801,2022-04-06_19h10.50.822,ImplicitInfinitySC-SLOWTASK,2021.2.3,Win32,69.88608568,,,,space,0.2868,,,,,,,,,,f,1,1.1369,,0,15,15,48,1,Crocodiles are alive,f,,,
,,,,,,,,4801,2022-04-06_19h10.50.822,ImplicitInfinitySC-SLOWTASK,2021.2.3,Win32,69.88608568,,,,space,0.384,,,,,,,,,,j,1,1.2127,,0,16,16,9,1,An inch is infinite,j,,,
,,,,,,,,4801,2022-04-06_19h10.50.822,ImplicitInfinitySC-SLOWTASK,2021.2.3,Win32,69.88608568,,,,space,0.3533,,,,,,,,,,f,1,2.7781,,0,17,17,44,1,The number five cannot go on forever,f,,,
,,,,,,,,4801,2022-04-06_19h10.50.822,ImplicitInfinitySC-SLOWTASK,2021.2.3,Win32,69.88608568,,,,space,0.4746,,,,,,,,,,f,0,4.3617,,0,18,18,14,1,An inch cannot always be further divided,j,,,
,,,,,,,,4801,2022-04-06_19h10.50.822,ImplicitInfinitySC-SLOWTASK,2021.2.3,Win32,69.88608568,,,,space,0.6497,,,,,,,,,,j,0,2.8697,,0,19,19,47,1,The number five can always be further divided,f,,,
,,,,,,,,4801,2022-04-06_19h10.50.822,ImplicitInfinitySC-SLOWTASK,2021.2.3,Win32,69.88608568,,,,space,0.5487,,,,,,,,,,j,1,5.5166,,0,20,20,16,1,Time is finite,j,,,
,,,,,,,,4801,2022-04-06_19h10.50.822,ImplicitInfinitySC-SLOWTASK,2021.2.3,Win32,69.88608568,,,,space,0.2789,,,,,,,,,,j,1,1.811,,0,21,21,118,1,A horse is used to tell time,j,,,
,,,,,,,,4801,2022-04-06_19h10.50.822,ImplicitInfinitySC-SLOWTASK,2021.2.3,Win32,69.88608568,,,,space,0.345,,,,,,,,,,f,1,1.0011,,0,22,22,93,1,Magenta is a color,f,,,
,,,,,,,,4801,2022-04-06_19h10.50.822,ImplicitInfinitySC-SLOWTASK,2021.2.3,Win32,69.88608568,,,,space,0.2834,,,,,,,,,,j,1,1.0668,,0,23,23,58,1,Clocks are alive,j,,,
,,,,,,,,4801,2022-04-06_19h10.50.822,ImplicitInfinitySC-SLOWTASK,2021.2.3,Win32,69.88608568,,,,space,0.324,,,,,,,,,,j,1,1.4151,,0,24,24,111,1,A circle is a flavor,j,,,
,,,,,,,,4801,2022-04-06_19h10.50.822,ImplicitInfinitySC-SLOWTASK,2021.2.3,Win32,69.88608568,,,,space,1.2012,,,,,,,,,,j,0,1.7326,,0,25,25,54,1,Dumbells are composed of matter,f,,,
,,,,,,,,4801,2022-04-06_19h10.50.822,ImplicitInfinitySC-SLOWTASK,2021.2.3,Win32,69.88608568,,,,space,0.2504,,,,,,,,,,j,1,1.6334,,0,26,26,120,1,A truck is an animal,j,,,
,,,,,,,,4801,2022-04-06_19h10.50.822,ImplicitInfinitySC-SLOWTASK,2021.2.3,Win32,69.88608568,,,,space,0.2965,,,,,,,,,,f,1,1.8726,,0,27,27,97,1,Dolphins can swim in the ocean,f,,,
,,,,,,,,4801,2022-04-06_19h10.50.822,ImplicitInfinitySC-SLOWTASK,2021.2.3,Win32,69.88608568,,,,space,0.3001,,,,,,,,,,j,1,1.5116,,0,28,28,108,1,This sentence is written in Spanish,j,,,
,,,,,,,,4801,2022-04-06_19h10.50.822,ImplicitInfinitySC-SLOWTASK,2021.2.3,Win32,69.88608568,,,,space,0.2333,,,,,,,,,,j,1,1.4723,,0,29,29,113,1,Magenta is a shape,j,,,
,,,,,,,,4801,2022-04-06_19h10.50.822,ImplicitInfinitySC-SLOWTASK,2021.2.3,Win32,69.88608568,,,,space,0.2673,,,,,,,,,,j,1,2.1845,,0,30,30,1,1,A minute is infinite,j,,,
,,,,,,,,4801,2022-04-06_19h10.50.822,ImplicitInfinitySC-SLOWTASK,2021.2.3,Win32,69.88608568,,,,space,0.3205,,,,,,,,,,f,1,4.4247,,0,31,31,19,1,Time is endless,f,,,
,,,,,,,,4801,2022-04-06_19h10.50.822,ImplicitInfinitySC-SLOWTASK,2021.2.3,Win32,69.88608568,,,,space,0.5581,,,,,,,,,,f,0,5.2229,,0,32,32,22,1,Time cannot always be further divided,j,,,
,,,,,,,,4801,2022-04-06_19h10.50.822,ImplicitInfinitySC-SLOWTASK,2021.2.3,Win32,69.88608568,,,,space,0.3912,,,,,,,,,,f,1,4.5476,,0,33,33,75,1,Frost is composed of matter,f,,,
,,,,,,,,4801,2022-04-06_19h10.50.822,ImplicitInfinitySC-SLOWTASK,2021.2.3,Win32,69.88608568,,,,space,0.3508,,,,,,,,,,j,1,1.2814,,0,34,34,119,1,A motorcycle is a person,j,,,
,,,,,,,,4801,2022-04-06_19h10.50.822,ImplicitInfinitySC-SLOWTASK,2021.2.3,Win32,69.88608568,,,,space,0.4183,,,,,,,,,,j,1,2.6362,,0,35,35,64,1,Echoes are composed of matter,j,,,
,,,,,,,,4801,2022-04-06_19h10.50.822,ImplicitInfinitySC-SLOWTASK,2021.2.3,Win32,69.88608568,,,,space,0.3749,,,,,,,,,,j,1,1.4128,,0,36,36,127,1,A zebra is used to write,j,,,
,,,,,,,,4801,2022-04-06_19h10.50.822,ImplicitInfinitySC-SLOWTASK,2021.2.3,Win32,69.88608568,,,,space,0.2508,,,,,,,,,,f,1,2.0889,,0,37,37,105,1,There are fifty states in the United States,f,,,
,,,,,,,,4801,2022-04-06_19h10.50.822,ImplicitInfinitySC-SLOWTASK,2021.2.3,Win32,69.88608568,,,,space,0.3331,,,,,,,,,,j,1,2.8127,,0,38,38,28,1,Space cannot go on forever,j,,,
,,,,,,,,4801,2022-04-06_19h10.50.822,ImplicitInfinitySC-SLOWTASK,2021.2.3,Win32,69.88608568,,,,space,0.245,,,,,,,,,,f,1,1.4163,,0,39,39,49,1,Pelicans are alive,f,,,
,,,,,,,,4801,2022-04-06_19h10.50.822,ImplicitInfinitySC-SLOWTASK,2021.2.3,Win32,69.88608568,,,,space,1.2194,,,,,,,,,,f,1,1.0641,space,0,40,40,94,1,Orange is a color,f,0.2374,,
,,,,,,,,4801,2022-04-06_19h10.50.822,ImplicitInfinitySC-SLOWTASK,2021.2.3,Win32,69.88608568,,,,space,0.4539,,,,,,,,,,j,1,1.4173,,0,41,41,43,1,The number five is endless,j,,,
,,,,,,,,4801,2022-04-06_19h10.50.822,ImplicitInfinitySC-SLOWTASK,2021.2.3,Win32,69.88608568,,,,space,9.713,,,,,,,,,,f,1,4.5643,,0,42,42,25,1,Space is infinite,f,,,
,,,,,,,,4801,2022-04-06_19h10.50.822,ImplicitInfinitySC-SLOWTASK,2021.2.3,Win32,69.88608568,,,,space,0.3683,,,,,,,,,,f,1,1.6707,,0,43,43,101,1,Jupiter is in our solar system,f,,,
,,,,,,,,4801,2022-04-06_19h10.50.822,ImplicitInfinitySC-SLOWTASK,2021.2.3,Win32,69.88608568,,,,space,0.2528,,,,,,,,,,f,0,2.1279,,0,44,44,6,1,A minute cannot always be further divided,j,,,
,,,,,,,,4801,2022-04-06_19h10.50.822,ImplicitInfinitySC-SLOWTASK,2021.2.3,Win32,69.88608568,,,,space,0.3527,,,,,,,,,,f,1,2.4227,,0,45,45,107,1,A pencil is used to write,f,,,
,,,,,,,,4801,2022-04-06_19h10.50.822,ImplicitInfinitySC-SLOWTASK,2021.2.3,Win32,69.88608568,,,,space,0.3382,,,,,,,,,,j,1,2.3174,,0,46,46,36,1,Numbers cannot go on forever,j,,,
,,,,,,,,4801,2022-04-06_19h10.50.822,ImplicitInfinitySC-SLOWTASK,2021.2.3,Win32,69.88608568,,,,space,0.25,,,,,,,,,,j,1,1.7755,,0,47,47,126,1,Humans can breathe water,j,,,
,,,,,,,,4801,2022-04-06_19h10.50.822,ImplicitInfinitySC-SLOWTASK,2021.2.3,Win32,69.88608568,,,,space,0.226,,,,,,,,,,f,1,1.2449,,0,48,48,27,1,Space is endless,f,,,
,,,,,,,,4801,2022-04-06_19h10.50.822,ImplicitInfinitySC-SLOWTASK,2021.2.3,Win32,69.88608568,,,,space,0.2558,,,,,,,,,,j,1,1.2439,,0,49,49,81,1,Tables reproduce,j,,,
,,,,,,,,4801,2022-04-06_19h10.50.822,ImplicitInfinitySC-SLOWTASK,2021.2.3,Win32,69.88608568,,,,space,0.2561,,,,,,,,,,j,1,1.7034,,0,50,50,66,1,Music has a molecular structure,j,,,
,,,,,,,,4801,2022-04-06_19h10.50.822,ImplicitInfinitySC-SLOWTASK,2021.2.3,Win32,69.88608568,,,,space,0.2194,,,,,,,,,,f,1,1.0195,,0,51,51,91,1,A circle is a shape,f,,,
,,,,,,,,4801,2022-04-06_19h10.50.822,ImplicitInfinitySC-SLOWTASK,2021.2.3,Win32,69.88608568,,,,space,0.2525,,,,,,,,,,f,1,2.2817,,0,52,52,42,1,The number five has an end,f,,,
,,,,,,,,4801,2022-04-06_19h10.50.822,ImplicitInfinitySC-SLOWTASK,2021.2.3,Win32,69.88608568,,,,space,0.2337,,,,,,,,,,j,1,0.989,,0,53,53,78,1,Hammers are alive,j,,,
,,,,,,,,4801,2022-04-06_19h10.50.822,ImplicitInfinitySC-SLOWTASK,2021.2.3,Win32,69.88608568,,,,space,0.2795,,,,,,,,,,j,1,1.5073,,0,54,54,11,1,An inch is endless,j,,,
,,,,,,,,4801,2022-04-06_19h10.50.822,ImplicitInfinitySC-SLOWTASK,2021.2.3,Win32,69.88608568,,,,space,0.1833,,,,,,,,,,f,1,2.2814,,0,55,55,106,1,Humans cannot breathe water,f,,,
,,,,,,,,4801,2022-04-06_19h10.50.822,ImplicitInfinitySC-SLOWTASK,2021.2.3,Win32,69.88608568,,,,space,0.2165,,,,,,,,,,j,1,1.221,,0,56,56,82,1,Stones reproduce,j,,,
,,,,,,,,4801,2022-04-06_19h10.50.822,ImplicitInfinitySC-SLOWTASK,2021.2.3,Win32,69.88608568,,,,space,0.2237,,,,,,,,,,j,1,1.5051,,0,57,57,115,1,Yellow is an animal,j,,,
,,,,,,,,4801,2022-04-06_19h10.50.822,ImplicitInfinitySC-SLOWTASK,2021.2.3,Win32,69.88608568,,,,space,0.2509,,,,,,,,,,j,1,1.4583,,0,58,58,112,1,Dinosaurs are not extinct,j,,,
,,,,,,,,4801,2022-04-06_19h10.50.822,ImplicitInfinitySC-SLOWTASK,2021.2.3,Win32,69.88608568,,,,space,0.2279,,,,,,,,,,j,1,0.8894,,0,59,59,79,1,Forks are alive,j,,,
,,,,,,,,4801,2022-04-06_19h10.50.822,ImplicitInfinitySC-SLOWTASK,2021.2.3,Win32,69.88608568,,,,space,0.4872,,,,,,,,,,j,1,4.8538,,0,60,60,20,1,Time cannot go on forever,j,,,
,,,,,,,,4801,2022-04-06_19h10.50.822,ImplicitInfinitySC-SLOWTASK,2021.2.3,Win32,69.88608568,,,,space,0.267,,,,,,,,,,f,0,2.6706,,0,61,61,46,1,The number five cannot always be further divided,j,,,
,,,,,,,,4801,2022-04-06_19h10.50.822,ImplicitInfinitySC-SLOWTASK,2021.2.3,Win32,69.88608568,,,,space,0.192,,,,,,,,,,j,1,0.984,,0,62,62,62,1,Helicopters reproduce,j,,,
,,,,,,,,4801,2022-04-06_19h10.50.822,ImplicitInfinitySC-SLOWTASK,2021.2.3,Win32,69.88608568,,,,space,0.2704,,,,,,,,,,f,1,1.5075,,0,63,63,98,1,A clock is used to tell time,f,,,
,,,,,,,,4801,2022-04-06_19h10.50.822,ImplicitInfinitySC-SLOWTASK,2021.2.3,Win32,69.88608568,,,,space,0.267,,,,,,,,,,f,0,5.2708,,0,64,64,34,1,Numbers have an end,j,,,
,,,,,,,,4801,2022-04-06_19h10.50.822,ImplicitInfinitySC-SLOWTASK,2021.2.3,Win32,69.88608568,,,,space,0.2289,,,,,,,,,,f,1,2.1504,,0,65,65,12,1,An inch cannot go on forever,f,,,
,,,,,,,,4801,2022-04-06_19h10.50.822,ImplicitInfinitySC-SLOWTASK,2021.2.3,Win32,69.88608568,,,,space,0.0345,,,,,,,,,,j,1,6.2953,,0,66,66,32,1,Numbers are finite,j,,,
,,,,,,,,4801,2022-04-06_19h10.50.822,ImplicitInfinitySC-SLOWTASK,2021.2.3,Win32,69.88608568,,,,space,0.2825,,,,,,,,,,f,0,6.5914,,0,67,67,38,1,Numbers cannot always be further divided,j,,,
,,,,,,,,4801,2022-04-06_19h10.50.822,ImplicitInfinitySC-SLOWTASK,2021.2.3,Win32,69.88608568,,,,space,0.5452,,,,,,,,,,j,0,3.2633,,0,68,68,15,1,An inch can be always further divided,f,,,
,,,,,,,,4801,2022-04-06_19h10.50.822,ImplicitInfinitySC-SLOWTASK,2021.2.3,Win32,69.88608568,,,,space,0.2489,,,,,,,,,,j,1,2.0621,,0,69,69,45,1,The number five can go on forever,j,,,
,,,,,,,,4801,2022-04-06_19h10.50.822,ImplicitInfinitySC-SLOWTASK,2021.2.3,Win32,69.88608568,,,,space,0.2984,,,,,,,,,,j,1,2.052,,0,70,70,63,1,Color can be put in a container,j,,,
,,,,,,,,4801,2022-04-06_19h10.50.822,ImplicitInfinitySC-SLOWTASK,2021.2.3,Win32,69.88608568,,,,space,0.2872,,,,,,,,,,j,1,1.7552,,0,71,71,85,1,Thoughts are composed of matter,j,,,
,,,,,,,,4801,2022-04-06_19h10.50.822,ImplicitInfinitySC-SLOWTASK,2021.2.3,Win32,69.88608568,,,,space,0.2678,,,,,,,,,,f,1,2.2539,,0,72,72,4,1,A minute cannot go on forever,f,,,
,,,,,,,,4801,2022-04-06_19h10.50.822,ImplicitInfinitySC-SLOWTASK,2021.2.3,Win32,69.88608568,,,,space,0.5018,,,,,,,,,,f,1,4.1094,,0,73,73,37,1,Numbers can go on forever,f,,,
,,,,,,,,4801,2022-04-06_19h10.50.822,ImplicitInfinitySC-SLOWTASK,2021.2.3,Win32,69.88608568,,,,space,0.3052,,,,,,,,,,j,1,1.7489,,0,74,74,84,1,Silence is composed of matter,j,,,
,,,,,,,,4801,2022-04-06_19h10.50.822,ImplicitInfinitySC-SLOWTASK,2021.2.3,Win32,69.88608568,,,,space,0.7168,,,,,,,,,,j,1,2.9327,,0,75,75,30,1,Space cannot always be further divided,j,,,
,,,,,,,,4801,2022-04-06_19h10.50.822,ImplicitInfinitySC-SLOWTASK,2021.2.3,Win32,69.88608568,,,,space,0.2213,,,,,,,,,,f,1,1.4055,,0,76,76,99,1,A motorcycle is a vehicle,f,,,
,,,,,,,,4801,2022-04-06_19h10.50.822,ImplicitInfinitySC-SLOWTASK,2021.2.3,Win32,69.88608568,,,,space,0.5856,,,,,,,,,,f,1,2.1642,,0,77,77,68,1,Algae is alive,f,,,
,,,,,,,,4801,2022-04-06_19h10.50.822,ImplicitInfinitySC-SLOWTASK,2021.2.3,Win32,69.88608568,,,,space,0.4993,,,,,,,,,,j,1,2.1973,,0,78,78,65,1,Shadows are composed of matter,j,,,
,,,,,,,,4801,2022-04-06_19h10.50.822,ImplicitInfinitySC-SLOWTASK,2021.2.3,Win32,69.88608568,,,,space,0.3337,,,,,,,,,,j,1,1.5001,,0,79,79,123,1,Mississippi is a country,j,,,
,,,,,,,,4801,2022-04-06_19h10.50.822,ImplicitInfinitySC-SLOWTASK,2021.2.3,Win32,69.88608568,,,,space,0.3716,,,,,,,,,,j,1,1.7957,,0,80,80,80,1,Mittens need nutrients,j,,,
,,,,,,,,4801,2022-04-06_19h10.50.822,ImplicitInfinitySC-SLOWTASK,2021.2.3,Win32,69.88608568,,,,,,,,,,,,,,,,,,,,,,,,,,,space,17.1358
