SlowInstrKey.keys,SlowInstrKey.rt,SlowInstrLoop.thisRepN,SlowInstrLoop.thisTrialN,SlowInstrLoop.thisN,SlowInstrLoop.thisIndex,SlowInstrLoop.ran,SlowInstructions,participant,date,expName,psychopyVersion,OS,frameRate,key_resp_5.keys,key_resp_5.corr,key_resp_5.rt,key_resp_4.keys,key_resp_4.rt,slowpracticeloop.thisRepN,slowpracticeloop.thisTrialN,slowpracticeloop.thisN,slowpracticeloop.thisIndex,slowpracticeloop.ran,practicetext,practicecorrect,key_resp_3.keys,key_resp_3.rt,SlowKey.keys,SlowKey.corr,SlowKey.rt,encouragekey.keys,SlowLoop.thisRepN,SlowLoop.thisTrialN,SlowLoop.thisN,SlowLoop.thisIndex,SlowLoop.ran,Statement,Correct,encouragekey.rt,endstudykey.keys
space,5.4347,0,0,0,0,1,"You will be shown a total of 80 statements pertaining to mathematics, science, and social concepts. Your task is to determine whether each statement is true or false. Some statements will be difficult and some will be easier.  We do not expect you to know the correct answer for all 80 statements.  Press SPACE to Continue",4843,2022-04-06_16h20.00.480,ImplicitInfinitySC-SLOWTASK,2021.2.3,Win32,143.9470275,,,,,,,,,,,,,,,,,,,,,,,,,,,
space,4.5652,0,1,1,1,1,"We urge you to try your best and take your time. Each statement will appear on your screen and you will have 10 seconds to decide if it is true or false. You will hear a beep at 6 seconds that will prompt you to respond within the next 4 seconds. If you fail to respond within this time, the trial will be counted as incorrect and the next statement will appear. Press SPACE to continue",4843,2022-04-06_16h20.00.480,ImplicitInfinitySC-SLOWTASK,2021.2.3,Win32,143.9470275,,,,,,,,,,,,,,,,,,,,,,,,,,,
space,4.5488,0,2,2,2,1,"If the statement is true, you will press the “F” key on your keyboard with your left pointer finger; if the statement is false, you will press the “J” key on your keyboard with your right pointer finger. Press SPACE to continue",4843,2022-04-06_16h20.00.480,ImplicitInfinitySC-SLOWTASK,2021.2.3,Win32,143.9470275,,,,,,,,,,,,,,,,,,,,,,,,,,,
space,2.7678,0,3,3,3,1,Take your time and go slowly! You have 10 seconds to answer! Press SPACE to continue. ,4843,2022-04-06_16h20.00.480,ImplicitInfinitySC-SLOWTASK,2021.2.3,Win32,143.9470275,,,,,,,,,,,,,,,,,,,,,,,,,,,
,,,,,,,,4843,2022-04-06_16h20.00.480,ImplicitInfinitySC-SLOWTASK,2021.2.3,Win32,143.9470275,f,1,2.1031,space,0.6321,0,0,0,1,1,Dinosaurs are extinct,f,,,,,,,,,,,,,,,
,,,,,,,,4843,2022-04-06_16h20.00.480,ImplicitInfinitySC-SLOWTASK,2021.2.3,Win32,143.9470275,f,1,1.2147,space,0.2825,0,1,1,2,1,Magenta is a color,f,,,,,,,,,,,,,,,
,,,,,,,,4843,2022-04-06_16h20.00.480,ImplicitInfinitySC-SLOWTASK,2021.2.3,Win32,143.9470275,f,0,1.9769,space,0.1738,0,2,2,7,1,The Earth is a star,j,,,,,,,,,,,,,,,
,,,,,,,,4843,2022-04-06_16h20.00.480,ImplicitInfinitySC-SLOWTASK,2021.2.3,Win32,143.9470275,f,1,0.9387,space,0.1448,0,3,3,3,1,A clock is used to tell time,f,,,,,,,,,,,,,,,
,,,,,,,,4843,2022-04-06_16h20.00.480,ImplicitInfinitySC-SLOWTASK,2021.2.3,Win32,143.9470275,f,1,2.1834,space,0.1366,0,4,4,4,1,Humans cannot breathe water,f,,,,,,,,,,,,,,,
,,,,,,,,4843,2022-04-06_16h20.00.480,ImplicitInfinitySC-SLOWTASK,2021.2.3,Win32,143.9470275,j,1,0.8684,space,0.1105,0,5,5,5,1,A truck is an animal,j,,,,,,,,,,,,,,,
,,,,,,,,4843,2022-04-06_16h20.00.480,ImplicitInfinitySC-SLOWTASK,2021.2.3,Win32,143.9470275,j,1,1.2888,space,0.1153,0,6,6,6,1,Jupiter is the planet we live on,j,,,,,,,,,,,,,,,
,,,,,,,,4843,2022-04-06_16h20.00.480,ImplicitInfinitySC-SLOWTASK,2021.2.3,Win32,143.9470275,j,1,1.1423,space,0.1032,0,7,7,8,1,Mississippi is a country,j,,,,,,,,,,,,,,,
,,,,,,,,4843,2022-04-06_16h20.00.480,ImplicitInfinitySC-SLOWTASK,2021.2.3,Win32,143.9470275,j,1,1.3618,space,0.0716,0,8,8,9,1,Humans cannot eat food,j,,,,,,,,,,,,,,,
,,,,,,,,4843,2022-04-06_16h20.00.480,ImplicitInfinitySC-SLOWTASK,2021.2.3,Win32,143.9470275,f,1,1.5039,space,0.1154,0,9,9,0,1,A circle is a shape,f,,,,,,,,,,,,,,,
,,,,,,,,4843,2022-04-06_16h20.00.480,ImplicitInfinitySC-SLOWTASK,2021.2.3,Win32,143.9470275,,,,space,0.1145,,,,,,,,space,4.2992,j,1,2.112,,0,0,0,125,1,There are ninty states in the United States,j,,
,,,,,,,,4843,2022-04-06_16h20.00.480,ImplicitInfinitySC-SLOWTASK,2021.2.3,Win32,143.9470275,,,,space,0.1121,,,,,,,,,,f,1,1.2162,,0,1,1,97,1,Dolphins can swim in the ocean,f,,
,,,,,,,,4843,2022-04-06_16h20.00.480,ImplicitInfinitySC-SLOWTASK,2021.2.3,Win32,143.9470275,,,,space,0.0861,,,,,,,,,,f,1,1.049,,0,2,2,25,1,Space is infinite,f,,
,,,,,,,,4843,2022-04-06_16h20.00.480,ImplicitInfinitySC-SLOWTASK,2021.2.3,Win32,143.9470275,,,,space,0.4386,,,,,,,,,,j,1,1.0452,,0,3,3,11,1,An inch is endless,j,,
,,,,,,,,4843,2022-04-06_16h20.00.480,ImplicitInfinitySC-SLOWTASK,2021.2.3,Win32,143.9470275,,,,space,0.1345,,,,,,,,,,f,1,1.5337,,0,4,4,54,1,Dumbells are composed of matter,f,,
,,,,,,,,4843,2022-04-06_16h20.00.480,ImplicitInfinitySC-SLOWTASK,2021.2.3,Win32,143.9470275,,,,space,0.1439,,,,,,,,,,j,1,1.268,,0,5,5,113,1,Magenta is a shape,j,,
,,,,,,,,4843,2022-04-06_16h20.00.480,ImplicitInfinitySC-SLOWTASK,2021.2.3,Win32,143.9470275,,,,space,0.1253,,,,,,,,,,f,1,1.1305,,0,6,6,10,1,An inch has an end,f,,
,,,,,,,,4843,2022-04-06_16h20.00.480,ImplicitInfinitySC-SLOWTASK,2021.2.3,Win32,143.9470275,,,,space,0.1179,,,,,,,,,,j,1,0.827,,0,7,7,58,1,Clocks are alive,j,,
,,,,,,,,4843,2022-04-06_16h20.00.480,ImplicitInfinitySC-SLOWTASK,2021.2.3,Win32,143.9470275,,,,space,0.1752,,,,,,,,,,j,1,3.4,,0,8,8,6,1,A minute cannot always be further divided,j,,
,,,,,,,,4843,2022-04-06_16h20.00.480,ImplicitInfinitySC-SLOWTASK,2021.2.3,Win32,143.9470275,,,,space,0.1456,,,,,,,,,,j,1,1.7999,,0,9,9,65,1,Shadows are composed of matter,j,,
,,,,,,,,4843,2022-04-06_16h20.00.480,ImplicitInfinitySC-SLOWTASK,2021.2.3,Win32,143.9470275,,,,space,0.1322,,,,,,,,,,j,1,2.3786,,0,10,10,66,1,Music has a molecular structure,j,,
,,,,,,,,4843,2022-04-06_16h20.00.480,ImplicitInfinitySC-SLOWTASK,2021.2.3,Win32,143.9470275,,,,space,0.1228,,,,,,,,,,f,1,1.1736,,0,11,11,21,1,Time can go on forever,f,,
,,,,,,,,4843,2022-04-06_16h20.00.480,ImplicitInfinitySC-SLOWTASK,2021.2.3,Win32,143.9470275,,,,space,0.1335,,,,,,,,,,j,1,1.0969,,0,12,12,86,1,Words have a molecular structure,j,,
,,,,,,,,4843,2022-04-06_16h20.00.480,ImplicitInfinitySC-SLOWTASK,2021.2.3,Win32,143.9470275,,,,space,0.1504,,,,,,,,,,f,1,1.5347,,0,13,13,8,1,An inch is finite,f,,
,,,,,,,,4843,2022-04-06_16h20.00.480,ImplicitInfinitySC-SLOWTASK,2021.2.3,Win32,143.9470275,,,,space,0.1293,,,,,,,,,,j,1,1.2218,,0,14,14,16,1,Time is finite,j,,
,,,,,,,,4843,2022-04-06_16h20.00.480,ImplicitInfinitySC-SLOWTASK,2021.2.3,Win32,143.9470275,,,,space,0.1321,,,,,,,,,,j,1,1.0934,,0,15,15,124,1,The president of the United States is Oprah,j,,
,,,,,,,,4843,2022-04-06_16h20.00.480,ImplicitInfinitySC-SLOWTASK,2021.2.3,Win32,143.9470275,,,,space,0.1606,,,,,,,,,,f,1,1.4887,,0,16,16,77,1,Saliva has a molecular structure,f,,
,,,,,,,,4843,2022-04-06_16h20.00.480,ImplicitInfinitySC-SLOWTASK,2021.2.3,Win32,143.9470275,,,,space,0.1256,,,,,,,,,,f,1,0.7936,,0,17,17,48,1,Crocodiles are alive,f,,
,,,,,,,,4843,2022-04-06_16h20.00.480,ImplicitInfinitySC-SLOWTASK,2021.2.3,Win32,143.9470275,,,,space,0.1434,,,,,,,,,,f,1,0.9116,,0,18,18,102,1,The Earth is a planet,f,,
,,,,,,,,4843,2022-04-06_16h20.00.480,ImplicitInfinitySC-SLOWTASK,2021.2.3,Win32,143.9470275,,,,space,0.1826,,,,,,,,,,j,1,1.7152,,0,19,19,60,1,Robots need nutrients,j,,
,,,,,,,,4843,2022-04-06_16h20.00.480,ImplicitInfinitySC-SLOWTASK,2021.2.3,Win32,143.9470275,,,,space,0.1519,,,,,,,,,,f,1,1.2126,,0,20,20,92,1,Dinosaurs are extinct,f,,
,,,,,,,,4843,2022-04-06_16h20.00.480,ImplicitInfinitySC-SLOWTASK,2021.2.3,Win32,143.9470275,,,,space,0.1105,,,,,,,,,,f,1,1.0694,,0,21,21,55,1,Concrete is composed of matter,f,,
,,,,,,,,4843,2022-04-06_16h20.00.480,ImplicitInfinitySC-SLOWTASK,2021.2.3,Win32,143.9470275,,,,space,0.1503,,,,,,,,,,f,1,1.466,,0,22,22,73,1,Bubbles can be put in a container,f,,
,,,,,,,,4843,2022-04-06_16h20.00.480,ImplicitInfinitySC-SLOWTASK,2021.2.3,Win32,143.9470275,,,,space,0.147,,,,,,,,,,j,1,1.056,,0,23,23,20,1,Time cannot go on forever,j,,
,,,,,,,,4843,2022-04-06_16h20.00.480,ImplicitInfinitySC-SLOWTASK,2021.2.3,Win32,143.9470275,,,,space,0.134,,,,,,,,,,j,1,1.3371,,0,24,24,43,1,The number five is endless,j,,
,,,,,,,,4843,2022-04-06_16h20.00.480,ImplicitInfinitySC-SLOWTASK,2021.2.3,Win32,143.9470275,,,,space,0.1296,,,,,,,,,,f,1,1.4768,,0,25,25,74,1,Foam is composed of matter,f,,
,,,,,,,,4843,2022-04-06_16h20.00.480,ImplicitInfinitySC-SLOWTASK,2021.2.3,Win32,143.9470275,,,,space,0.1613,,,,,,,,,,f,1,1.0453,,0,26,26,17,1,Time is infinite,f,,
,,,,,,,,4843,2022-04-06_16h20.00.480,ImplicitInfinitySC-SLOWTASK,2021.2.3,Win32,143.9470275,,,,space,0.1323,,,,,,,,,,f,1,1.8374,,0,27,27,90,1,A triangle is not an animal,f,,
,,,,,,,,4843,2022-04-06_16h20.00.480,ImplicitInfinitySC-SLOWTASK,2021.2.3,Win32,143.9470275,,,,space,0.1695,,,,,,,,,,f,1,0.828,,0,28,28,89,1,A square is a shape,f,,
,,,,,,,,4843,2022-04-06_16h20.00.480,ImplicitInfinitySC-SLOWTASK,2021.2.3,Win32,143.9470275,,,,space,0.1155,,,,,,,,,,f,1,0.7505,,0,29,29,98,1,A clock is used to tell time,f,,
,,,,,,,,4843,2022-04-06_16h20.00.480,ImplicitInfinitySC-SLOWTASK,2021.2.3,Win32,143.9470275,,,,space,0.1877,,,,,,,,,,j,1,1.7579,,0,30,30,32,1,Numbers are finite,j,,
,,,,,,,,4843,2022-04-06_16h20.00.480,ImplicitInfinitySC-SLOWTASK,2021.2.3,Win32,143.9470275,,,,space,0.1133,,,,,,,,,,f,1,0.9631,,0,31,31,68,1,Algae is alive,f,,
,,,,,,,,4843,2022-04-06_16h20.00.480,ImplicitInfinitySC-SLOWTASK,2021.2.3,Win32,143.9470275,,,,space,0.1372,,,,,,,,,,f,1,1.0924,,0,32,32,75,1,Frost is composed of matter,f,,
,,,,,,,,4843,2022-04-06_16h20.00.480,ImplicitInfinitySC-SLOWTASK,2021.2.3,Win32,143.9470275,,,,space,0.1472,,,,,,,,,,f,1,0.7434,,0,33,33,19,1,Time is endless,f,,
,,,,,,,,4843,2022-04-06_16h20.00.480,ImplicitInfinitySC-SLOWTASK,2021.2.3,Win32,143.9470275,,,,space,0.1478,,,,,,,,,,j,1,0.9825,,0,34,34,9,1,An inch is infinite,j,,
,,,,,,,,4843,2022-04-06_16h20.00.480,ImplicitInfinitySC-SLOWTASK,2021.2.3,Win32,143.9470275,,,,space,0.1033,,,,,,,,,,j,1,0.9047,,0,35,35,109,1,A square is a color,j,,
,,,,,,,,4843,2022-04-06_16h20.00.480,ImplicitInfinitySC-SLOWTASK,2021.2.3,Win32,143.9470275,,,,space,0.1419,,,,,,,,,,f,1,2.0488,,0,36,36,4,1,A minute cannot go on forever,f,,
,,,,,,,,4843,2022-04-06_16h20.00.480,ImplicitInfinitySC-SLOWTASK,2021.2.3,Win32,143.9470275,,,,space,0.1202,,,,,,,,,,f,1,1.2092,,0,37,37,101,1,Jupiter is in our solar system,f,,
,,,,,,,,4843,2022-04-06_16h20.00.480,ImplicitInfinitySC-SLOWTASK,2021.2.3,Win32,143.9470275,,,,space,0.1578,,,,,,,,,,f,1,0.9428,,0,38,38,99,1,A motorcycle is a vehicle,f,,
,,,,,,,,4843,2022-04-06_16h20.00.480,ImplicitInfinitySC-SLOWTASK,2021.2.3,Win32,143.9470275,,,,space,0.1304,,,,,,,,,,j,1,1.1625,,0,39,39,116,1,Fish cannot swim in the ocean,j,,
,,,,,,,,4843,2022-04-06_16h20.00.480,ImplicitInfinitySC-SLOWTASK,2021.2.3,Win32,143.9470275,,,,space,0.4736,,,,,,,,,,f,1,0.7101,space,0,40,40,49,1,Pelicans are alive,f,0.2684,
,,,,,,,,4843,2022-04-06_16h20.00.480,ImplicitInfinitySC-SLOWTASK,2021.2.3,Win32,143.9470275,,,,space,0.1261,,,,,,,,,,f,1,0.9665,,0,41,41,104,1,The United States has a president,f,,
,,,,,,,,4843,2022-04-06_16h20.00.480,ImplicitInfinitySC-SLOWTASK,2021.2.3,Win32,143.9470275,,,,space,0.1062,,,,,,,,,,j,1,0.8425,,0,42,42,45,1,The number five can go on forever,j,,
,,,,,,,,4843,2022-04-06_16h20.00.480,ImplicitInfinitySC-SLOWTASK,2021.2.3,Win32,143.9470275,,,,space,0.1494,,,,,,,,,,j,1,2.0048,,0,43,43,83,1,Songs can be put in a container,j,,
,,,,,,,,4843,2022-04-06_16h20.00.480,ImplicitInfinitySC-SLOWTASK,2021.2.3,Win32,143.9470275,,,,space,0.169,,,,,,,,,,j,1,2.7246,,0,44,44,14,1,An inch cannot always be further divided,j,,
,,,,,,,,4843,2022-04-06_16h20.00.480,ImplicitInfinitySC-SLOWTASK,2021.2.3,Win32,143.9470275,,,,space,0.5116,,,,,,,,,,f,0,4.0827,,0,45,45,38,1,Numbers cannot always be further divided,j,,
,,,,,,,,4843,2022-04-06_16h20.00.480,ImplicitInfinitySC-SLOWTASK,2021.2.3,Win32,143.9470275,,,,space,0.1668,,,,,,,,,,f,1,2.8635,,0,46,46,23,1,Time can always be further divided,f,,
,,,,,,,,4843,2022-04-06_16h20.00.480,ImplicitInfinitySC-SLOWTASK,2021.2.3,Win32,143.9470275,,,,space,0.1673,,,,,,,,,,f,1,1.2667,,0,47,47,2,1,A minute has an end,f,,
,,,,,,,,4843,2022-04-06_16h20.00.480,ImplicitInfinitySC-SLOWTASK,2021.2.3,Win32,143.9470275,,,,space,0.0898,,,,,,,,,,f,1,0.9394,,0,48,48,57,1,Rocks have a molecular structure,f,,
,,,,,,,,4843,2022-04-06_16h20.00.480,ImplicitInfinitySC-SLOWTASK,2021.2.3,Win32,143.9470275,,,,space,0.0789,,,,,,,,,,j,0,0.8804,,0,49,49,37,1,Numbers can go on forever,f,,
,,,,,,,,4843,2022-04-06_16h20.00.480,ImplicitInfinitySC-SLOWTASK,2021.2.3,Win32,143.9470275,,,,space,0.1448,,,,,,,,,,f,1,1.0548,,0,50,50,103,1,The United States is a country,f,,
,,,,,,,,4843,2022-04-06_16h20.00.480,ImplicitInfinitySC-SLOWTASK,2021.2.3,Win32,143.9470275,,,,space,0.1701,,,,,,,,,,j,1,1.0688,,0,51,51,24,1,Space is finite,j,,
,,,,,,,,4843,2022-04-06_16h20.00.480,ImplicitInfinitySC-SLOWTASK,2021.2.3,Win32,143.9470275,,,,space,0.1639,,,,,,,,,,j,1,1.3917,,0,52,52,117,1,Dolphins cannot swim in the ocean,j,,
,,,,,,,,4843,2022-04-06_16h20.00.480,ImplicitInfinitySC-SLOWTASK,2021.2.3,Win32,143.9470275,,,,space,0.1134,,,,,,,,,,j,1,1.256,,0,53,53,28,1,Space cannot go on forever,j,,
,,,,,,,,4843,2022-04-06_16h20.00.480,ImplicitInfinitySC-SLOWTASK,2021.2.3,Win32,143.9470275,,,,space,0.1386,,,,,,,,,,j,1,1.5065,,0,54,54,84,1,Silence is composed of matter,j,,
,,,,,,,,4843,2022-04-06_16h20.00.480,ImplicitInfinitySC-SLOWTASK,2021.2.3,Win32,143.9470275,,,,space,0.161,,,,,,,,,,j,1,1.8638,,0,55,55,22,1,Time cannot always be further divided,j,,
,,,,,,,,4843,2022-04-06_16h20.00.480,ImplicitInfinitySC-SLOWTASK,2021.2.3,Win32,143.9470275,,,,space,0.1308,,,,,,,,,,j,1,1.4209,,0,56,56,36,1,Numbers cannot go on forever,j,,
,,,,,,,,4843,2022-04-06_16h20.00.480,ImplicitInfinitySC-SLOWTASK,2021.2.3,Win32,143.9470275,,,,space,0.1531,,,,,,,,,,f,1,1.528,,0,57,57,88,1,This sentence is written in English,f,,
,,,,,,,,4843,2022-04-06_16h20.00.480,ImplicitInfinitySC-SLOWTASK,2021.2.3,Win32,143.9470275,,,,space,0.1453,,,,,,,,,,f,1,1.0214,,0,58,58,33,1,Numbers are infinite,f,,
,,,,,,,,4843,2022-04-06_16h20.00.480,ImplicitInfinitySC-SLOWTASK,2021.2.3,Win32,143.9470275,,,,space,0.1614,,,,,,,,,,j,1,1.8855,,0,59,59,64,1,Echoes are composed of matter,j,,
,,,,,,,,4843,2022-04-06_16h20.00.480,ImplicitInfinitySC-SLOWTASK,2021.2.3,Win32,143.9470275,,,,space,0.1178,,,,,,,,,,j,1,0.9794,,0,60,60,119,1,A motorcycle is a person,j,,
,,,,,,,,4843,2022-04-06_16h20.00.480,ImplicitInfinitySC-SLOWTASK,2021.2.3,Win32,143.9470275,,,,space,0.1221,,,,,,,,,,f,1,0.8845,,0,61,61,96,1,Fish can swim in the ocean,f,,
,,,,,,,,4843,2022-04-06_16h20.00.480,ImplicitInfinitySC-SLOWTASK,2021.2.3,Win32,143.9470275,,,,space,0.1489,,,,,,,,,,j,1,1.2971,,0,62,62,127,1,A zebra is used to write,j,,
,,,,,,,,4843,2022-04-06_16h20.00.480,ImplicitInfinitySC-SLOWTASK,2021.2.3,Win32,143.9470275,,,,space,0.1211,,,,,,,,,,f,1,0.7015,,0,63,63,94,1,Orange is a color,f,,
,,,,,,,,4843,2022-04-06_16h20.00.480,ImplicitInfinitySC-SLOWTASK,2021.2.3,Win32,143.9470275,,,,space,0.1143,,,,,,,,,,f,1,0.9672,,0,64,64,50,1,Turtles need nutrients,f,,
,,,,,,,,4843,2022-04-06_16h20.00.480,ImplicitInfinitySC-SLOWTASK,2021.2.3,Win32,143.9470275,,,,space,0.0915,,,,,,,,,,j,1,0.9532,,0,65,65,41,1,The number five is infinite,j,,
,,,,,,,,4843,2022-04-06_16h20.00.480,ImplicitInfinitySC-SLOWTASK,2021.2.3,Win32,143.9470275,,,,space,0.092,,,,,,,,,,j,1,0.8751,,0,66,66,111,1,A circle is a flavor,j,,
,,,,,,,,4843,2022-04-06_16h20.00.480,ImplicitInfinitySC-SLOWTASK,2021.2.3,Win32,143.9470275,,,,space,0.1256,,,,,,,,,,f,1,0.6739,,0,67,67,91,1,A circle is a shape,f,,
,,,,,,,,4843,2022-04-06_16h20.00.480,ImplicitInfinitySC-SLOWTASK,2021.2.3,Win32,143.9470275,,,,space,0.132,,,,,,,,,,j,1,0.9157,,0,68,68,81,1,Tables reproduce,j,,
,,,,,,,,4843,2022-04-06_16h20.00.480,ImplicitInfinitySC-SLOWTASK,2021.2.3,Win32,143.9470275,,,,space,0.1243,,,,,,,,,,f,1,0.8072,,0,69,69,69,1,Bacteria are alive,f,,
,,,,,,,,4843,2022-04-06_16h20.00.480,ImplicitInfinitySC-SLOWTASK,2021.2.3,Win32,143.9470275,,,,space,0.0984,,,,,,,,,,j,1,1.1424,,0,70,70,114,1,Lightbulbs are made of clay,j,,
,,,,,,,,4843,2022-04-06_16h20.00.480,ImplicitInfinitySC-SLOWTASK,2021.2.3,Win32,143.9470275,,,,space,0.0923,,,,,,,,,,j,1,1.7014,,0,71,71,30,1,Space cannot always be further divided,j,,
,,,,,,,,4843,2022-04-06_16h20.00.480,ImplicitInfinitySC-SLOWTASK,2021.2.3,Win32,143.9470275,,,,space,0.1066,,,,,,,,,,j,1,1.2416,,0,72,72,5,1,A minute can go on forever,j,,
,,,,,,,,4843,2022-04-06_16h20.00.480,ImplicitInfinitySC-SLOWTASK,2021.2.3,Win32,143.9470275,,,,space,0.0961,,,,,,,,,,j,1,1.3327,,0,73,73,85,1,Thoughts are composed of matter,j,,
,,,,,,,,4843,2022-04-06_16h20.00.480,ImplicitInfinitySC-SLOWTASK,2021.2.3,Win32,143.9470275,,,,space,0.1161,,,,,,,,,,f,1,1.2983,,0,74,74,31,1,Space can always be further divided,f,,
,,,,,,,,4843,2022-04-06_16h20.00.480,ImplicitInfinitySC-SLOWTASK,2021.2.3,Win32,143.9470275,,,,space,0.1541,,,,,,,,,,f,1,2.0026,,0,75,75,105,1,There are fifty states in the United States,f,,
,,,,,,,,4843,2022-04-06_16h20.00.480,ImplicitInfinitySC-SLOWTASK,2021.2.3,Win32,143.9470275,,,,space,0.0904,,,,,,,,,,j,1,1.0209,,0,76,76,82,1,Stones reproduce,j,,
,,,,,,,,4843,2022-04-06_16h20.00.480,ImplicitInfinitySC-SLOWTASK,2021.2.3,Win32,143.9470275,,,,space,0.3213,,,,,,,,,,j,1,1.4807,,0,77,77,80,1,Mittens need nutrients,j,,
,,,,,,,,4843,2022-04-06_16h20.00.480,ImplicitInfinitySC-SLOWTASK,2021.2.3,Win32,143.9470275,,,,space,0.0903,,,,,,,,,,j,1,0.8124,,0,78,78,115,1,Yellow is an animal,j,,
,,,,,,,,4843,2022-04-06_16h20.00.480,ImplicitInfinitySC-SLOWTASK,2021.2.3,Win32,143.9470275,,,,space,0.0694,,,,,,,,,,j,1,0.7026,,0,79,79,13,1,An inch can go on forever,j,,
,,,,,,,,4843,2022-04-06_16h20.00.480,ImplicitInfinitySC-SLOWTASK,2021.2.3,Win32,143.9470275,,,,space,0.0892,,,,,,,,,,j,1,0.7717,,0,80,80,78,1,Hammers are alive,j,,
,,,,,,,,4843,2022-04-06_16h20.00.480,ImplicitInfinitySC-SLOWTASK,2021.2.3,Win32,143.9470275,,,,,,,,,,,,,,,,,,,,,,,,,,,
