SlowInstrKey.keys,SlowInstrKey.rt,SlowInstrLoop.thisRepN,SlowInstrLoop.thisTrialN,SlowInstrLoop.thisN,SlowInstrLoop.thisIndex,SlowInstrLoop.ran,SlowInstructions,participant,date,expName,psychopyVersion,OS,frameRate,key_resp_5.keys,key_resp_5.corr,key_resp_5.rt,key_resp_4.keys,key_resp_4.rt,slowpracticeloop.thisRepN,slowpracticeloop.thisTrialN,slowpracticeloop.thisN,slowpracticeloop.thisIndex,slowpracticeloop.ran,practicetext,practicecorrect,key_resp_3.keys,key_resp_3.rt,SlowKey.keys,SlowKey.corr,SlowKey.rt,encouragekey.keys,SlowLoop.thisRepN,SlowLoop.thisTrialN,SlowLoop.thisN,SlowLoop.thisIndex,SlowLoop.ran,Statement,Correct,encouragekey.rt,endstudykey.keys,endstudykey.rt
space,5.1275,0,0,0,0,1,"You will be shown a total of 80 statements pertaining to mathematics, science, and social concepts. Your task is to determine whether each statement is true or false. Some statements will be difficult and some will be easier.  We do not expect you to know the correct answer for all 80 statements.  Press SPACE to Continue",4957,2022-04-06_18h14.36.531,ImplicitInfinitySC-SLOWTASK,2021.2.3,Win32,60.86797736,,,,,,,,,,,,,,,,,,,,,,,,,,,,
space,3.8716,0,1,1,1,1,"We urge you to try your best and take your time. Each statement will appear on your screen and you will have 10 seconds to decide if it is true or false. You will hear a beep at 6 seconds that will prompt you to respond within the next 4 seconds. If you fail to respond within this time, the trial will be counted as incorrect and the next statement will appear. Press SPACE to continue",4957,2022-04-06_18h14.36.531,ImplicitInfinitySC-SLOWTASK,2021.2.3,Win32,60.86797736,,,,,,,,,,,,,,,,,,,,,,,,,,,,
space,10.4301,0,2,2,2,1,"If the statement is true, you will press the “F” key on your keyboard with your left pointer finger; if the statement is false, you will press the “J” key on your keyboard with your right pointer finger. Press SPACE to continue",4957,2022-04-06_18h14.36.531,ImplicitInfinitySC-SLOWTASK,2021.2.3,Win32,60.86797736,,,,,,,,,,,,,,,,,,,,,,,,,,,,
space,3.0881,0,3,3,3,1,Take your time and go slowly! You have 10 seconds to answer! Press SPACE to continue. ,4957,2022-04-06_18h14.36.531,ImplicitInfinitySC-SLOWTASK,2021.2.3,Win32,60.86797736,,,,,,,,,,,,,,,,,,,,,,,,,,,,
,,,,,,,,4957,2022-04-06_18h14.36.531,ImplicitInfinitySC-SLOWTASK,2021.2.3,Win32,60.86797736,f,0,1.7285,space,1.7159,0,0,0,7,1,The Earth is a star,j,,,,,,,,,,,,,,,,
,,,,,,,,4957,2022-04-06_18h14.36.531,ImplicitInfinitySC-SLOWTASK,2021.2.3,Win32,60.86797736,f,1,2.2598,space,0.9566,0,1,1,0,1,A circle is a shape,f,,,,,,,,,,,,,,,,
,,,,,,,,4957,2022-04-06_18h14.36.531,ImplicitInfinitySC-SLOWTASK,2021.2.3,Win32,60.86797736,f,1,1.6435,space,0.6975,0,2,2,3,1,A clock is used to tell time,f,,,,,,,,,,,,,,,,
,,,,,,,,4957,2022-04-06_18h14.36.531,ImplicitInfinitySC-SLOWTASK,2021.2.3,Win32,60.86797736,f,1,1.4052,space,0.5873,0,3,3,4,1,Humans cannot breathe water,f,,,,,,,,,,,,,,,,
,,,,,,,,4957,2022-04-06_18h14.36.531,ImplicitInfinitySC-SLOWTASK,2021.2.3,Win32,60.86797736,j,1,1.3026,space,0.6367,0,4,4,6,1,Jupiter is the planet we live on,j,,,,,,,,,,,,,,,,
,,,,,,,,4957,2022-04-06_18h14.36.531,ImplicitInfinitySC-SLOWTASK,2021.2.3,Win32,60.86797736,j,1,1.4259,space,0.4897,0,5,5,8,1,Mississippi is a country,j,,,,,,,,,,,,,,,,
,,,,,,,,4957,2022-04-06_18h14.36.531,ImplicitInfinitySC-SLOWTASK,2021.2.3,Win32,60.86797736,j,1,1.7625,space,0.5892,0,6,6,5,1,A truck is an animal,j,,,,,,,,,,,,,,,,
,,,,,,,,4957,2022-04-06_18h14.36.531,ImplicitInfinitySC-SLOWTASK,2021.2.3,Win32,60.86797736,f,1,1.9377,space,0.5191,0,7,7,1,1,Dinosaurs are extinct,f,,,,,,,,,,,,,,,,
,,,,,,,,4957,2022-04-06_18h14.36.531,ImplicitInfinitySC-SLOWTASK,2021.2.3,Win32,60.86797736,j,1,1.5789,space,0.4068,0,8,8,9,1,Humans cannot eat food,j,,,,,,,,,,,,,,,,
,,,,,,,,4957,2022-04-06_18h14.36.531,ImplicitInfinitySC-SLOWTASK,2021.2.3,Win32,60.86797736,f,1,1.4628,space,0.4805,0,9,9,2,1,Magenta is a color,f,,,,,,,,,,,,,,,,
,,,,,,,,4957,2022-04-06_18h14.36.531,ImplicitInfinitySC-SLOWTASK,2021.2.3,Win32,60.86797736,,,,space,0.5404,,,,,,,,space,84.1607,j,1,1.873,,0,0,0,84,1,Silence is composed of matter,j,,,
,,,,,,,,4957,2022-04-06_18h14.36.531,ImplicitInfinitySC-SLOWTASK,2021.2.3,Win32,60.86797736,,,,space,0.5867,,,,,,,,,,j,1,2.1032,,0,1,1,20,1,Time cannot go on forever,j,,,
,,,,,,,,4957,2022-04-06_18h14.36.531,ImplicitInfinitySC-SLOWTASK,2021.2.3,Win32,60.86797736,,,,space,0.5526,,,,,,,,,,f,1,2.5829,,0,2,2,15,1,An inch can be always further divided,f,,,
,,,,,,,,4957,2022-04-06_18h14.36.531,ImplicitInfinitySC-SLOWTASK,2021.2.3,Win32,60.86797736,,,,space,0.485,,,,,,,,,,j,1,1.7398,,0,3,3,18,1,Time has an end,j,,,
,,,,,,,,4957,2022-04-06_18h14.36.531,ImplicitInfinitySC-SLOWTASK,2021.2.3,Win32,60.86797736,,,,space,0.468,,,,,,,,,,f,1,2.3907,,0,4,4,74,1,Foam is composed of matter,f,,,
,,,,,,,,4957,2022-04-06_18h14.36.531,ImplicitInfinitySC-SLOWTASK,2021.2.3,Win32,60.86797736,,,,space,0.6238,,,,,,,,,,j,1,2.754,,0,5,5,111,1,A circle is a flavor,j,,,
,,,,,,,,4957,2022-04-06_18h14.36.531,ImplicitInfinitySC-SLOWTASK,2021.2.3,Win32,60.86797736,,,,space,0.4013,,,,,,,,,,j,1,2.071,,0,6,6,13,1,An inch can go on forever,j,,,
,,,,,,,,4957,2022-04-06_18h14.36.531,ImplicitInfinitySC-SLOWTASK,2021.2.3,Win32,60.86797736,,,,space,0.4389,,,,,,,,,,f,1,1.536,,0,7,7,57,1,Rocks have a molecular structure,f,,,
,,,,,,,,4957,2022-04-06_18h14.36.531,ImplicitInfinitySC-SLOWTASK,2021.2.3,Win32,60.86797736,,,,space,0.453,,,,,,,,,,f,1,1.8535,,0,8,8,96,1,Fish can swim in the ocean,f,,,
,,,,,,,,4957,2022-04-06_18h14.36.531,ImplicitInfinitySC-SLOWTASK,2021.2.3,Win32,60.86797736,,,,space,0.3516,,,,,,,,,,f,1,1.2807,,0,9,9,105,1,There are fifty states in the United States,f,,,
,,,,,,,,4957,2022-04-06_18h14.36.531,ImplicitInfinitySC-SLOWTASK,2021.2.3,Win32,60.86797736,,,,,,,,,,,,,,,j,1,1.4785,,0,10,10,60,1,Robots need nutrients,j,,,
,,,,,,,,4957,2022-04-06_18h14.36.531,ImplicitInfinitySC-SLOWTASK,2021.2.3,Win32,60.86797736,,,,space,0.6613,,,,,,,,,,f,1,3.3368,,0,11,11,89,1,A square is a shape,f,,,
,,,,,,,,4957,2022-04-06_18h14.36.531,ImplicitInfinitySC-SLOWTASK,2021.2.3,Win32,60.86797736,,,,space,0.3359,,,,,,,,,,f,1,1.8047,,0,12,12,72,1,Mushrooms reproduce,f,,,
,,,,,,,,4957,2022-04-06_18h14.36.531,ImplicitInfinitySC-SLOWTASK,2021.2.3,Win32,60.86797736,,,,space,0.3365,,,,,,,,,,j,1,3.294,,0,13,13,6,1,A minute cannot always be further divided,j,,,
,,,,,,,,4957,2022-04-06_18h14.36.531,ImplicitInfinitySC-SLOWTASK,2021.2.3,Win32,60.86797736,,,,space,0.3893,,,,,,,,,,j,1,2.8206,,0,14,14,117,1,Dolphins cannot swim in the ocean,j,,,
,,,,,,,,4957,2022-04-06_18h14.36.531,ImplicitInfinitySC-SLOWTASK,2021.2.3,Win32,60.86797736,,,,space,0.368,,,,,,,,,,f,0,1.088,,0,15,15,78,1,Hammers are alive,j,,,
,,,,,,,,4957,2022-04-06_18h14.36.531,ImplicitInfinitySC-SLOWTASK,2021.2.3,Win32,60.86797736,,,,space,0.4345,,,,,,,,,,j,1,1.0779,,0,16,16,126,1,Humans can breathe water,j,,,
,,,,,,,,4957,2022-04-06_18h14.36.531,ImplicitInfinitySC-SLOWTASK,2021.2.3,Win32,60.86797736,,,,space,6.4441,,,,,,,,,,f,1,0.9522,,0,17,17,17,1,Time is infinite,f,,,
,,,,,,,,4957,2022-04-06_18h14.36.531,ImplicitInfinitySC-SLOWTASK,2021.2.3,Win32,60.86797736,,,,space,0.5527,,,,,,,,,,j,1,1.2876,,0,18,18,109,1,A square is a color,j,,,
,,,,,,,,4957,2022-04-06_18h14.36.531,ImplicitInfinitySC-SLOWTASK,2021.2.3,Win32,60.86797736,,,,space,0.3395,,,,,,,,,,f,1,2.1795,,0,19,19,92,1,Dinosaurs are extinct,f,,,
,,,,,,,,4957,2022-04-06_18h14.36.531,ImplicitInfinitySC-SLOWTASK,2021.2.3,Win32,60.86797736,,,,space,0.2864,,,,,,,,,,j,1,1.5878,,0,20,20,1,1,A minute is infinite,j,,,
,,,,,,,,4957,2022-04-06_18h14.36.531,ImplicitInfinitySC-SLOWTASK,2021.2.3,Win32,60.86797736,,,,space,0.3433,,,,,,,,,,f,1,2.227,,0,21,21,31,1,Space can always be further divided,f,,,
,,,,,,,,4957,2022-04-06_18h14.36.531,ImplicitInfinitySC-SLOWTASK,2021.2.3,Win32,60.86797736,,,,space,0.3197,,,,,,,,,,j,1,2.9929,,0,22,22,43,1,The number five is endless,j,,,
,,,,,,,,4957,2022-04-06_18h14.36.531,ImplicitInfinitySC-SLOWTASK,2021.2.3,Win32,60.86797736,,,,space,0.2901,,,,,,,,,,j,1,1.3363,,0,23,23,119,1,A motorcycle is a person,j,,,
,,,,,,,,4957,2022-04-06_18h14.36.531,ImplicitInfinitySC-SLOWTASK,2021.2.3,Win32,60.86797736,,,,space,0.3692,,,,,,,,,,j,1,3.7047,,0,24,24,67,1,Gravity has a molecular structure,j,,,
,,,,,,,,4957,2022-04-06_18h14.36.531,ImplicitInfinitySC-SLOWTASK,2021.2.3,Win32,60.86797736,,,,space,0.3585,,,,,,,,,,j,1,3.5083,,0,25,25,114,1,Lightbulbs are made of clay,j,,,
,,,,,,,,4957,2022-04-06_18h14.36.531,ImplicitInfinitySC-SLOWTASK,2021.2.3,Win32,60.86797736,,,,space,0.4859,,,,,,,,,,j,1,1.8204,,0,26,26,82,1,Stones reproduce,j,,,
,,,,,,,,4957,2022-04-06_18h14.36.531,ImplicitInfinitySC-SLOWTASK,2021.2.3,Win32,60.86797736,,,,space,0.8204,,,,,,,,,,j,1,4.2707,,0,27,27,58,1,Clocks are alive,j,,,
,,,,,,,,4957,2022-04-06_18h14.36.531,ImplicitInfinitySC-SLOWTASK,2021.2.3,Win32,60.86797736,,,,space,0.3431,,,,,,,,,,j,1,2.3335,,0,28,28,14,1,An inch cannot always be further divided,j,,,
,,,,,,,,4957,2022-04-06_18h14.36.531,ImplicitInfinitySC-SLOWTASK,2021.2.3,Win32,60.86797736,,,,space,0.2714,,,,,,,,,,f,1,1.654,,0,29,29,76,1,Pollen has a molecular structure,f,,,
,,,,,,,,4957,2022-04-06_18h14.36.531,ImplicitInfinitySC-SLOWTASK,2021.2.3,Win32,60.86797736,,,,space,0.3394,,,,,,,,,,j,1,3.0248,,0,30,30,22,1,Time cannot always be further divided,j,,,
,,,,,,,,4957,2022-04-06_18h14.36.531,ImplicitInfinitySC-SLOWTASK,2021.2.3,Win32,60.86797736,,,,space,0.4876,,,,,,,,,,f,0,3.721,,0,31,31,63,1,Color can be put in a container,j,,,
,,,,,,,,4957,2022-04-06_18h14.36.531,ImplicitInfinitySC-SLOWTASK,2021.2.3,Win32,60.86797736,,,,space,9.1931,,,,,,,,,,f,1,2.572,,0,32,32,99,1,A motorcycle is a vehicle,f,,,
,,,,,,,,4957,2022-04-06_18h14.36.531,ImplicitInfinitySC-SLOWTASK,2021.2.3,Win32,60.86797736,,,,space,0.3348,,,,,,,,,,j,1,0.9721,,0,33,33,121,1,Jupiter is the planet we live on,j,,,
,,,,,,,,4957,2022-04-06_18h14.36.531,ImplicitInfinitySC-SLOWTASK,2021.2.3,Win32,60.86797736,,,,space,0.2884,,,,,,,,,,f,1,1.6085,,0,34,34,75,1,Frost is composed of matter,f,,,
,,,,,,,,4957,2022-04-06_18h14.36.531,ImplicitInfinitySC-SLOWTASK,2021.2.3,Win32,60.86797736,,,,space,0.3196,,,,,,,,,,j,1,2.1408,,0,35,35,110,1,A triangle is an animal,j,,,
,,,,,,,,4957,2022-04-06_18h14.36.531,ImplicitInfinitySC-SLOWTASK,2021.2.3,Win32,60.86797736,,,,space,0.3056,,,,,,,,,,f,1,1.0776,,0,36,36,48,1,Crocodiles are alive,f,,,
,,,,,,,,4957,2022-04-06_18h14.36.531,ImplicitInfinitySC-SLOWTASK,2021.2.3,Win32,60.86797736,,,,space,0.3525,,,,,,,,,,f,1,1.1875,,0,37,37,88,1,This sentence is written in English,f,,,
,,,,,,,,4957,2022-04-06_18h14.36.531,ImplicitInfinitySC-SLOWTASK,2021.2.3,Win32,60.86797736,,,,space,0.2876,,,,,,,,,,f,1,1.9698,,0,38,38,73,1,Bubbles can be put in a container,f,,,
,,,,,,,,4957,2022-04-06_18h14.36.531,ImplicitInfinitySC-SLOWTASK,2021.2.3,Win32,60.86797736,,,,space,0.3026,,,,,,,,,,f,1,1.9259,,0,39,39,35,1,Numbers are endless,f,,,
,,,,,,,,4957,2022-04-06_18h14.36.531,ImplicitInfinitySC-SLOWTASK,2021.2.3,Win32,60.86797736,,,,space,2.5533,,,,,,,,,,j,0,2.0722,space,0,40,40,4,1,A minute cannot go on forever,f,34.8338,,
,,,,,,,,4957,2022-04-06_18h14.36.531,ImplicitInfinitySC-SLOWTASK,2021.2.3,Win32,60.86797736,,,,space,0.4395,,,,,,,,,,f,1,1.6036,,0,41,41,50,1,Turtles need nutrients,f,,,
,,,,,,,,4957,2022-04-06_18h14.36.531,ImplicitInfinitySC-SLOWTASK,2021.2.3,Win32,60.86797736,,,,space,0.4348,,,,,,,,,,f,1,1.0859,,0,42,42,70,1,Grass needs nutrients,f,,,
,,,,,,,,4957,2022-04-06_18h14.36.531,ImplicitInfinitySC-SLOWTASK,2021.2.3,Win32,60.86797736,,,,space,0.9242,,,,,,,,,,j,0,1.2135,,0,43,43,71,1,Oaks reproduce,f,,,
,,,,,,,,4957,2022-04-06_18h14.36.531,ImplicitInfinitySC-SLOWTASK,2021.2.3,Win32,60.86797736,,,,space,0.3349,,,,,,,,,,f,1,2.7767,,0,44,44,77,1,Saliva has a molecular structure,f,,,
,,,,,,,,4957,2022-04-06_18h14.36.531,ImplicitInfinitySC-SLOWTASK,2021.2.3,Win32,60.86797736,,,,space,0.3515,,,,,,,,,,f,1,1.2875,,0,45,45,107,1,A pencil is used to write,f,,,
,,,,,,,,4957,2022-04-06_18h14.36.531,ImplicitInfinitySC-SLOWTASK,2021.2.3,Win32,60.86797736,,,,space,0.3877,,,,,,,,,,j,1,2.2459,,0,46,46,80,1,Mittens need nutrients,j,,,
,,,,,,,,4957,2022-04-06_18h14.36.531,ImplicitInfinitySC-SLOWTASK,2021.2.3,Win32,60.86797736,,,,space,0.3028,,,,,,,,,,j,1,1.2194,,0,47,47,16,1,Time is finite,j,,,
,,,,,,,,4957,2022-04-06_18h14.36.531,ImplicitInfinitySC-SLOWTASK,2021.2.3,Win32,60.86797736,,,,space,0.3389,,,,,,,,,,f,0,1.7582,,0,48,48,122,1,The Earth is a star,j,,,
,,,,,,,,4957,2022-04-06_18h14.36.531,ImplicitInfinitySC-SLOWTASK,2021.2.3,Win32,60.86797736,,,,space,0.9215,,,,,,,,,,f,1,1.979,,0,49,49,33,1,Numbers are infinite,f,,,
,,,,,,,,4957,2022-04-06_18h14.36.531,ImplicitInfinitySC-SLOWTASK,2021.2.3,Win32,60.86797736,,,,space,0.3086,,,,,,,,,,j,1,1.5569,,0,50,50,9,1,An inch is infinite,j,,,
,,,,,,,,4957,2022-04-06_18h14.36.531,ImplicitInfinitySC-SLOWTASK,2021.2.3,Win32,60.86797736,,,,space,0.3867,,,,,,,,,,f,1,1.0581,,0,51,51,95,1,Yellow is a color,f,,,
,,,,,,,,4957,2022-04-06_18h14.36.531,ImplicitInfinitySC-SLOWTASK,2021.2.3,Win32,60.86797736,,,,space,0.6522,,,,,,,,,,j,0,1.3279,,0,52,52,106,1,Humans cannot breathe water,f,,,
,,,,,,,,4957,2022-04-06_18h14.36.531,ImplicitInfinitySC-SLOWTASK,2021.2.3,Win32,60.86797736,,,,space,0.3526,,,,,,,,,,f,1,2.759,,0,53,53,54,1,Dumbells are composed of matter,f,,,
,,,,,,,,4957,2022-04-06_18h14.36.531,ImplicitInfinitySC-SLOWTASK,2021.2.3,Win32,60.86797736,,,,space,0.2518,,,,,,,,,,j,1,1.2372,,0,54,54,108,1,This sentence is written in Spanish,j,,,
,,,,,,,,4957,2022-04-06_18h14.36.531,ImplicitInfinitySC-SLOWTASK,2021.2.3,Win32,60.86797736,,,,space,0.2557,,,,,,,,,,j,1,1.3872,,0,55,55,113,1,Magenta is a shape,j,,,
,,,,,,,,4957,2022-04-06_18h14.36.531,ImplicitInfinitySC-SLOWTASK,2021.2.3,Win32,60.86797736,,,,space,0.3575,,,,,,,,,,j,1,5.2686,,0,56,56,24,1,Space is finite,j,,,
,,,,,,,,4957,2022-04-06_18h14.36.531,ImplicitInfinitySC-SLOWTASK,2021.2.3,Win32,60.86797736,,,,space,0.356,,,,,,,,,,f,1,1.6031,,0,57,57,12,1,An inch cannot go on forever,f,,,
,,,,,,,,4957,2022-04-06_18h14.36.531,ImplicitInfinitySC-SLOWTASK,2021.2.3,Win32,60.86797736,,,,space,0.3687,,,,,,,,,,f,1,1.6376,,0,58,58,103,1,The United States is a country,f,,,
,,,,,,,,4957,2022-04-06_18h14.36.531,ImplicitInfinitySC-SLOWTASK,2021.2.3,Win32,60.86797736,,,,space,0.385,,,,,,,,,,j,1,3.453,,0,59,59,112,1,Dinosaurs are not extinct,j,,,
,,,,,,,,4957,2022-04-06_18h14.36.531,ImplicitInfinitySC-SLOWTASK,2021.2.3,Win32,60.86797736,,,,space,0.3189,,,,,,,,,,j,1,1.973,,0,60,60,45,1,The number five can go on forever,j,,,
,,,,,,,,4957,2022-04-06_18h14.36.531,ImplicitInfinitySC-SLOWTASK,2021.2.3,Win32,60.86797736,,,,space,0.3699,,,,,,,,,,f,1,1.697,,0,61,61,8,1,An inch is finite,f,,,
,,,,,,,,4957,2022-04-06_18h14.36.531,ImplicitInfinitySC-SLOWTASK,2021.2.3,Win32,60.86797736,,,,space,0.3516,,,,,,,,,,f,1,1.1087,,0,62,62,51,1,Tigers reproduce,f,,,
,,,,,,,,4957,2022-04-06_18h14.36.531,ImplicitInfinitySC-SLOWTASK,2021.2.3,Win32,60.86797736,,,,space,0.8059,,,,,,,,,,j,1,1.6527,,0,63,63,124,1,The president of the United States is Oprah,j,,,
,,,,,,,,4957,2022-04-06_18h14.36.531,ImplicitInfinitySC-SLOWTASK,2021.2.3,Win32,60.86797736,,,,space,0.4512,,,,,,,,,,f,1,1.4915,,0,64,64,29,1,Space can go on forever,f,,,
,,,,,,,,4957,2022-04-06_18h14.36.531,ImplicitInfinitySC-SLOWTASK,2021.2.3,Win32,60.86797736,,,,space,0.3063,,,,,,,,,,j,1,2.271,,0,65,65,85,1,Thoughts are composed of matter,j,,,
,,,,,,,,4957,2022-04-06_18h14.36.531,ImplicitInfinitySC-SLOWTASK,2021.2.3,Win32,60.86797736,,,,space,0.4745,,,,,,,,,,f,1,4.0704,,0,66,66,27,1,Space is endless,f,,,
,,,,,,,,4957,2022-04-06_18h14.36.531,ImplicitInfinitySC-SLOWTASK,2021.2.3,Win32,60.86797736,,,,space,0.3694,,,,,,,,,,f,1,1.8842,,0,67,67,37,1,Numbers can go on forever,f,,,
,,,,,,,,4957,2022-04-06_18h14.36.531,ImplicitInfinitySC-SLOWTASK,2021.2.3,Win32,60.86797736,,,,space,0.4522,,,,,,,,,,j,1,1.8591,,0,68,68,61,1,Sailboats reproduce,j,,,
,,,,,,,,4957,2022-04-06_18h14.36.531,ImplicitInfinitySC-SLOWTASK,2021.2.3,Win32,60.86797736,,,,space,0.6021,,,,,,,,,,f,1,2.3871,,0,69,69,102,1,The Earth is a planet,f,,,
,,,,,,,,4957,2022-04-06_18h14.36.531,ImplicitInfinitySC-SLOWTASK,2021.2.3,Win32,60.86797736,,,,space,0.3012,,,,,,,,,,f,1,1.0054,,0,70,70,94,1,Orange is a color,f,,,
,,,,,,,,4957,2022-04-06_18h14.36.531,ImplicitInfinitySC-SLOWTASK,2021.2.3,Win32,60.86797736,,,,space,0.6908,,,,,,,,,,j,0,2.2646,,0,71,71,7,1,A minute can always be further divided,f,,,
,,,,,,,,4957,2022-04-06_18h14.36.531,ImplicitInfinitySC-SLOWTASK,2021.2.3,Win32,60.86797736,,,,space,0.3187,,,,,,,,,,j,1,1.7865,,0,72,72,81,1,Tables reproduce,j,,,
,,,,,,,,4957,2022-04-06_18h14.36.531,ImplicitInfinitySC-SLOWTASK,2021.2.3,Win32,60.86797736,,,,space,1.4899,,,,,,,,,,j,0,2.9036,,0,73,73,53,1,Bricks can be put in a container,f,,,
,,,,,,,,4957,2022-04-06_18h14.36.531,ImplicitInfinitySC-SLOWTASK,2021.2.3,Win32,60.86797736,,,,space,0.3183,,,,,,,,,,j,1,1.908,,0,74,74,3,1,A minute is endless,j,,,
,,,,,,,,4957,2022-04-06_18h14.36.531,ImplicitInfinitySC-SLOWTASK,2021.2.3,Win32,60.86797736,,,,space,0.3734,,,,,,,,,,j,1,4.4252,,0,75,75,34,1,Numbers have an end,j,,,
,,,,,,,,4957,2022-04-06_18h14.36.531,ImplicitInfinitySC-SLOWTASK,2021.2.3,Win32,60.86797736,,,,space,0.3201,,,,,,,,,,j,1,2.4202,,0,76,76,41,1,The number five is infinite,j,,,
,,,,,,,,4957,2022-04-06_18h14.36.531,ImplicitInfinitySC-SLOWTASK,2021.2.3,Win32,60.86797736,,,,space,0.4519,,,,,,,,,,j,1,1.9697,,0,77,77,66,1,Music has a molecular structure,j,,,
,,,,,,,,4957,2022-04-06_18h14.36.531,ImplicitInfinitySC-SLOWTASK,2021.2.3,Win32,60.86797736,,,,space,0.5526,,,,,,,,,,j,1,4.5368,,0,78,78,32,1,Numbers are finite,j,,,
,,,,,,,,4957,2022-04-06_18h14.36.531,ImplicitInfinitySC-SLOWTASK,2021.2.3,Win32,60.86797736,,,,space,0.286,,,,,,,,,,j,1,2.9409,,0,79,79,46,1,The number five cannot always be further divided,j,,,
,,,,,,,,4957,2022-04-06_18h14.36.531,ImplicitInfinitySC-SLOWTASK,2021.2.3,Win32,60.86797736,,,,space,0.2749,,,,,,,,,,j,1,1.5084,,0,80,80,125,1,There are ninty states in the United States,j,,,
,,,,,,,,4957,2022-04-06_18h14.36.531,ImplicitInfinitySC-SLOWTASK,2021.2.3,Win32,60.86797736,,,,,,,,,,,,,,,,,,,,,,,,,,,space,5.7637
