SlowInstrKey.keys,SlowInstrKey.rt,SlowInstrLoop.thisRepN,SlowInstrLoop.thisTrialN,SlowInstrLoop.thisN,SlowInstrLoop.thisIndex,SlowInstrLoop.ran,SlowInstructions,participant,date,expName,psychopyVersion,OS,frameRate,key_resp_5.keys,key_resp_5.corr,key_resp_5.rt,key_resp_4.keys,key_resp_4.rt,slowpracticeloop.thisRepN,slowpracticeloop.thisTrialN,slowpracticeloop.thisN,slowpracticeloop.thisIndex,slowpracticeloop.ran,practicetext,practicecorrect,key_resp_3.keys,key_resp_3.rt,SlowKey.keys,SlowKey.corr,SlowKey.rt,encouragekey.keys,SlowLoop.thisRepN,SlowLoop.thisTrialN,SlowLoop.thisN,SlowLoop.thisIndex,SlowLoop.ran,Statement,Correct,encouragekey.rt,endstudykey.keys
space,10.8103,0,0,0,0,1,"You will be shown a total of 80 statements pertaining to mathematics, science, and social concepts. Your task is to determine whether each statement is true or false. Some statements will be difficult and some will be easier.  We do not expect you to know the correct answer for all 80 statements.  Press SPACE to Continue",5204,2022-04-06_19h01.17.712,ImplicitInfinitySC-SLOWTASK,2021.2.3,Win32,59.97720866,,,,,,,,,,,,,,,,,,,,,,,,,,,
space,11.8729,0,1,1,1,1,"We urge you to try your best and take your time. Each statement will appear on your screen and you will have 10 seconds to decide if it is true or false. You will hear a beep at 6 seconds that will prompt you to respond within the next 4 seconds. If you fail to respond within this time, the trial will be counted as incorrect and the next statement will appear. Press SPACE to continue",5204,2022-04-06_19h01.17.712,ImplicitInfinitySC-SLOWTASK,2021.2.3,Win32,59.97720866,,,,,,,,,,,,,,,,,,,,,,,,,,,
space,4.6375,0,2,2,2,1,"If the statement is true, you will press the “F” key on your keyboard with your left pointer finger; if the statement is false, you will press the “J” key on your keyboard with your right pointer finger. Press SPACE to continue",5204,2022-04-06_19h01.17.712,ImplicitInfinitySC-SLOWTASK,2021.2.3,Win32,59.97720866,,,,,,,,,,,,,,,,,,,,,,,,,,,
space,3.5358,0,3,3,3,1,Take your time and go slowly! You have 10 seconds to answer! Press SPACE to continue. ,5204,2022-04-06_19h01.17.712,ImplicitInfinitySC-SLOWTASK,2021.2.3,Win32,59.97720866,,,,,,,,,,,,,,,,,,,,,,,,,,,
,,,,,,,,5204,2022-04-06_19h01.17.712,ImplicitInfinitySC-SLOWTASK,2021.2.3,Win32,59.97720866,j,1,3.287,space,1.1647,0,0,0,7,1,The Earth is a star,j,,,,,,,,,,,,,,,
,,,,,,,,5204,2022-04-06_19h01.17.712,ImplicitInfinitySC-SLOWTASK,2021.2.3,Win32,59.97720866,j,1,2.0307,space,1.1121,0,1,1,6,1,Jupiter is the planet we live on,j,,,,,,,,,,,,,,,
,,,,,,,,5204,2022-04-06_19h01.17.712,ImplicitInfinitySC-SLOWTASK,2021.2.3,Win32,59.97720866,f,1,1.964,space,1.5791,0,2,2,2,1,Magenta is a color,f,,,,,,,,,,,,,,,
,,,,,,,,5204,2022-04-06_19h01.17.712,ImplicitInfinitySC-SLOWTASK,2021.2.3,Win32,59.97720866,f,1,1.5409,space,0.8676,0,3,3,0,1,A circle is a shape,f,,,,,,,,,,,,,,,
,,,,,,,,5204,2022-04-06_19h01.17.712,ImplicitInfinitySC-SLOWTASK,2021.2.3,Win32,59.97720866,j,1,1.5182,space,0.7514,0,4,4,9,1,Humans cannot eat food,j,,,,,,,,,,,,,,,
,,,,,,,,5204,2022-04-06_19h01.17.712,ImplicitInfinitySC-SLOWTASK,2021.2.3,Win32,59.97720866,f,1,2.0946,space,0.5438,0,5,5,4,1,Humans cannot breathe water,f,,,,,,,,,,,,,,,
,,,,,,,,5204,2022-04-06_19h01.17.712,ImplicitInfinitySC-SLOWTASK,2021.2.3,Win32,59.97720866,f,1,1.7035,space,0.6378,0,6,6,1,1,Dinosaurs are extinct,f,,,,,,,,,,,,,,,
,,,,,,,,5204,2022-04-06_19h01.17.712,ImplicitInfinitySC-SLOWTASK,2021.2.3,Win32,59.97720866,j,1,1.5015,space,0.4618,0,7,7,8,1,Mississippi is a country,j,,,,,,,,,,,,,,,
,,,,,,,,5204,2022-04-06_19h01.17.712,ImplicitInfinitySC-SLOWTASK,2021.2.3,Win32,59.97720866,f,1,1.973,space,0.5572,0,8,8,3,1,A clock is used to tell time,f,,,,,,,,,,,,,,,
,,,,,,,,5204,2022-04-06_19h01.17.712,ImplicitInfinitySC-SLOWTASK,2021.2.3,Win32,59.97720866,j,1,1.4822,space,0.5189,0,9,9,5,1,A truck is an animal,j,,,,,,,,,,,,,,,
,,,,,,,,5204,2022-04-06_19h01.17.712,ImplicitInfinitySC-SLOWTASK,2021.2.3,Win32,59.97720866,,,,space,1.08,,,,,,,,space,4.896,f,1,2.308,,0,0,0,21,1,Time can go on forever,f,,
,,,,,,,,5204,2022-04-06_19h01.17.712,ImplicitInfinitySC-SLOWTASK,2021.2.3,Win32,59.97720866,,,,space,0.5686,,,,,,,,,,j,1,2.5825,,0,1,1,6,1,A minute cannot always be further divided,j,,
,,,,,,,,5204,2022-04-06_19h01.17.712,ImplicitInfinitySC-SLOWTASK,2021.2.3,Win32,59.97720866,,,,space,0.9224,,,,,,,,,,f,1,3.3744,,0,2,2,4,1,A minute cannot go on forever,f,,
,,,,,,,,5204,2022-04-06_19h01.17.712,ImplicitInfinitySC-SLOWTASK,2021.2.3,Win32,59.97720866,,,,space,0.6689,,,,,,,,,,j,1,2.0001,,0,3,3,127,1,A zebra is used to write,j,,
,,,,,,,,5204,2022-04-06_19h01.17.712,ImplicitInfinitySC-SLOWTASK,2021.2.3,Win32,59.97720866,,,,space,0.493,,,,,,,,,,j,1,2.633,,0,4,4,14,1,An inch cannot always be further divided,j,,
,,,,,,,,5204,2022-04-06_19h01.17.712,ImplicitInfinitySC-SLOWTASK,2021.2.3,Win32,59.97720866,,,,space,0.6411,,,,,,,,,,j,1,3.3495,,0,5,5,64,1,Echoes are composed of matter,j,,
,,,,,,,,5204,2022-04-06_19h01.17.712,ImplicitInfinitySC-SLOWTASK,2021.2.3,Win32,59.97720866,,,,space,0.584,,,,,,,,,,j,1,2.8233,,0,6,6,36,1,Numbers cannot go on forever,j,,
,,,,,,,,5204,2022-04-06_19h01.17.712,ImplicitInfinitySC-SLOWTASK,2021.2.3,Win32,59.97720866,,,,space,0.6685,,,,,,,,,,f,1,1.1231,,0,7,7,95,1,Yellow is a color,f,,
,,,,,,,,5204,2022-04-06_19h01.17.712,ImplicitInfinitySC-SLOWTASK,2021.2.3,Win32,59.97720866,,,,space,0.5837,,,,,,,,,,f,1,2.0843,,0,8,8,19,1,Time is endless,f,,
,,,,,,,,5204,2022-04-06_19h01.17.712,ImplicitInfinitySC-SLOWTASK,2021.2.3,Win32,59.97720866,,,,space,0.5157,,,,,,,,,,j,1,3.7981,,0,9,9,83,1,Songs can be put in a container,j,,
,,,,,,,,5204,2022-04-06_19h01.17.712,ImplicitInfinitySC-SLOWTASK,2021.2.3,Win32,59.97720866,,,,space,0.5955,,,,,,,,,,j,1,2.3857,,0,10,10,116,1,Fish cannot swim in the ocean,j,,
,,,,,,,,5204,2022-04-06_19h01.17.712,ImplicitInfinitySC-SLOWTASK,2021.2.3,Win32,59.97720866,,,,space,1.932,,,,,,,,,,j,0,2.6273,,0,11,11,105,1,There are fifty states in the United States,f,,
,,,,,,,,5204,2022-04-06_19h01.17.712,ImplicitInfinitySC-SLOWTASK,2021.2.3,Win32,59.97720866,,,,space,0.8856,,,,,,,,,,f,1,1.9528,,0,12,12,2,1,A minute has an end,f,,
,,,,,,,,5204,2022-04-06_19h01.17.712,ImplicitInfinitySC-SLOWTASK,2021.2.3,Win32,59.97720866,,,,space,0.5005,,,,,,,,,,f,1,1.9723,,0,13,13,33,1,Numbers are infinite,f,,
,,,,,,,,5204,2022-04-06_19h01.17.712,ImplicitInfinitySC-SLOWTASK,2021.2.3,Win32,59.97720866,,,,space,0.3213,,,,,,,,,,f,1,1.5379,,0,14,14,48,1,Crocodiles are alive,f,,
,,,,,,,,5204,2022-04-06_19h01.17.712,ImplicitInfinitySC-SLOWTASK,2021.2.3,Win32,59.97720866,,,,space,0.5657,,,,,,,,,,j,1,1.4948,,0,15,15,122,1,The Earth is a star,j,,
,,,,,,,,5204,2022-04-06_19h01.17.712,ImplicitInfinitySC-SLOWTASK,2021.2.3,Win32,59.97720866,,,,space,0.5996,,,,,,,,,,j,1,1.6168,,0,16,16,78,1,Hammers are alive,j,,
,,,,,,,,5204,2022-04-06_19h01.17.712,ImplicitInfinitySC-SLOWTASK,2021.2.3,Win32,59.97720866,,,,space,1.2892,,,,,,,,,,f,1,1.3019,,0,17,17,92,1,Dinosaurs are extinct,f,,
,,,,,,,,5204,2022-04-06_19h01.17.712,ImplicitInfinitySC-SLOWTASK,2021.2.3,Win32,59.97720866,,,,space,0.4386,,,,,,,,,,j,1,3.5786,,0,18,18,16,1,Time is finite,j,,
,,,,,,,,5204,2022-04-06_19h01.17.712,ImplicitInfinitySC-SLOWTASK,2021.2.3,Win32,59.97720866,,,,space,0.4247,,,,,,,,,,j,1,1.9423,,0,19,19,38,1,Numbers cannot always be further divided,j,,
,,,,,,,,5204,2022-04-06_19h01.17.712,ImplicitInfinitySC-SLOWTASK,2021.2.3,Win32,59.97720866,,,,space,0.694,,,,,,,,,,f,0,5.2723,,0,20,20,22,1,Time cannot always be further divided,j,,
,,,,,,,,5204,2022-04-06_19h01.17.712,ImplicitInfinitySC-SLOWTASK,2021.2.3,Win32,59.97720866,,,,space,0.8993,,,,,,,,,,f,1,3.1182,,0,21,21,25,1,Space is infinite,f,,
,,,,,,,,5204,2022-04-06_19h01.17.712,ImplicitInfinitySC-SLOWTASK,2021.2.3,Win32,59.97720866,,,,space,0.802,,,,,,,,,,j,1,2.2165,,0,22,22,20,1,Time cannot go on forever,j,,
,,,,,,,,5204,2022-04-06_19h01.17.712,ImplicitInfinitySC-SLOWTASK,2021.2.3,Win32,59.97720866,,,,space,0.519,,,,,,,,,,j,1,1.9242,,0,23,23,18,1,Time has an end,j,,
,,,,,,,,5204,2022-04-06_19h01.17.712,ImplicitInfinitySC-SLOWTASK,2021.2.3,Win32,59.97720866,,,,space,0.5929,,,,,,,,,,f,1,1.2387,,0,24,24,102,1,The Earth is a planet,f,,
,,,,,,,,5204,2022-04-06_19h01.17.712,ImplicitInfinitySC-SLOWTASK,2021.2.3,Win32,59.97720866,,,,space,0.499,,,,,,,,,,j,1,1.621,,0,25,25,85,1,Thoughts are composed of matter,j,,
,,,,,,,,5204,2022-04-06_19h01.17.712,ImplicitInfinitySC-SLOWTASK,2021.2.3,Win32,59.97720866,,,,space,0.5843,,,,,,,,,,f,1,1.2185,,0,26,26,89,1,A square is a shape,f,,
,,,,,,,,5204,2022-04-06_19h01.17.712,ImplicitInfinitySC-SLOWTASK,2021.2.3,Win32,59.97720866,,,,space,0.6168,,,,,,,,,,f,1,1.2078,,0,27,27,93,1,Magenta is a color,f,,
,,,,,,,,5204,2022-04-06_19h01.17.712,ImplicitInfinitySC-SLOWTASK,2021.2.3,Win32,59.97720866,,,,space,0.4824,,,,,,,,,,j,1,2.4501,,0,28,28,24,1,Space is finite,j,,
,,,,,,,,5204,2022-04-06_19h01.17.712,ImplicitInfinitySC-SLOWTASK,2021.2.3,Win32,59.97720866,,,,space,0.4765,,,,,,,,,,j,1,1.8176,,0,29,29,110,1,A triangle is an animal,j,,
,,,,,,,,5204,2022-04-06_19h01.17.712,ImplicitInfinitySC-SLOWTASK,2021.2.3,Win32,59.97720866,,,,space,0.5695,,,,,,,,,,f,1,1.4498,,0,30,30,100,1,A truck is a vehicle,f,,
,,,,,,,,5204,2022-04-06_19h01.17.712,ImplicitInfinitySC-SLOWTASK,2021.2.3,Win32,59.97720866,,,,space,0.3766,,,,,,,,,,f,1,1.3331,,0,31,31,107,1,A pencil is used to write,f,,
,,,,,,,,5204,2022-04-06_19h01.17.712,ImplicitInfinitySC-SLOWTASK,2021.2.3,Win32,59.97720866,,,,space,0.5596,,,,,,,,,,j,1,1.8054,,0,32,32,46,1,The number five cannot always be further divided,j,,
,,,,,,,,5204,2022-04-06_19h01.17.712,ImplicitInfinitySC-SLOWTASK,2021.2.3,Win32,59.97720866,,,,space,0.729,,,,,,,,,,f,1,2.6482,,0,33,33,53,1,Bricks can be put in a container,f,,
,,,,,,,,5204,2022-04-06_19h01.17.712,ImplicitInfinitySC-SLOWTASK,2021.2.3,Win32,59.97720866,,,,space,0.5697,,,,,,,,,,f,1,2.0685,,0,34,34,69,1,Bacteria are alive,f,,
,,,,,,,,5204,2022-04-06_19h01.17.712,ImplicitInfinitySC-SLOWTASK,2021.2.3,Win32,59.97720866,,,,space,0.5439,,,,,,,,,,f,1,2.1388,,0,35,35,42,1,The number five has an end,f,,
,,,,,,,,5204,2022-04-06_19h01.17.712,ImplicitInfinitySC-SLOWTASK,2021.2.3,Win32,59.97720866,,,,space,0.5711,,,,,,,,,,j,1,1.7485,,0,36,36,43,1,The number five is endless,j,,
,,,,,,,,5204,2022-04-06_19h01.17.712,ImplicitInfinitySC-SLOWTASK,2021.2.3,Win32,59.97720866,,,,space,0.5416,,,,,,,,,,f,1,1.5036,,0,37,37,37,1,Numbers can go on forever,f,,
,,,,,,,,5204,2022-04-06_19h01.17.712,ImplicitInfinitySC-SLOWTASK,2021.2.3,Win32,59.97720866,,,,space,0.5382,,,,,,,,,,f,1,1.1273,,0,38,38,94,1,Orange is a color,f,,
,,,,,,,,5204,2022-04-06_19h01.17.712,ImplicitInfinitySC-SLOWTASK,2021.2.3,Win32,59.97720866,,,,space,0.544,,,,,,,,,,j,0,4.6892,,0,39,39,73,1,Bubbles can be put in a container,f,,
,,,,,,,,5204,2022-04-06_19h01.17.712,ImplicitInfinitySC-SLOWTASK,2021.2.3,Win32,59.97720866,,,,space,1.3283,,,,,,,,,,j,1,2.9274,space,0,40,40,66,1,Music has a molecular structure,j,0.1453,
,,,,,,,,5204,2022-04-06_19h01.17.712,ImplicitInfinitySC-SLOWTASK,2021.2.3,Win32,59.97720866,,,,space,0.3686,,,,,,,,,,f,1,1.2666,,0,41,41,49,1,Pelicans are alive,f,,
,,,,,,,,5204,2022-04-06_19h01.17.712,ImplicitInfinitySC-SLOWTASK,2021.2.3,Win32,59.97720866,,,,space,0.5181,,,,,,,,,,j,1,0.9584,,0,42,42,115,1,Yellow is an animal,j,,
,,,,,,,,5204,2022-04-06_19h01.17.712,ImplicitInfinitySC-SLOWTASK,2021.2.3,Win32,59.97720866,,,,space,0.6482,,,,,,,,,,f,1,2.1422,,0,43,43,47,1,The number five can always be further divided,f,,
,,,,,,,,5204,2022-04-06_19h01.17.712,ImplicitInfinitySC-SLOWTASK,2021.2.3,Win32,59.97720866,,,,space,0.6924,,,,,,,,,,f,1,1.6501,,0,44,44,55,1,Concrete is composed of matter,f,,
,,,,,,,,5204,2022-04-06_19h01.17.712,ImplicitInfinitySC-SLOWTASK,2021.2.3,Win32,59.97720866,,,,space,0.3183,,,,,,,,,,f,1,1.5335,,0,45,45,27,1,Space is endless,f,,
,,,,,,,,5204,2022-04-06_19h01.17.712,ImplicitInfinitySC-SLOWTASK,2021.2.3,Win32,59.97720866,,,,space,0.317,,,,,,,,,,f,1,1.5177,,0,46,46,98,1,A clock is used to tell time,f,,
,,,,,,,,5204,2022-04-06_19h01.17.712,ImplicitInfinitySC-SLOWTASK,2021.2.3,Win32,59.97720866,,,,space,0.4698,,,,,,,,,,j,1,1.2697,,0,47,47,84,1,Silence is composed of matter,j,,
,,,,,,,,5204,2022-04-06_19h01.17.712,ImplicitInfinitySC-SLOWTASK,2021.2.3,Win32,59.97720866,,,,space,0.4266,,,,,,,,,,f,1,1.983,,0,48,48,101,1,Jupiter is in our solar system,f,,
,,,,,,,,5204,2022-04-06_19h01.17.712,ImplicitInfinitySC-SLOWTASK,2021.2.3,Win32,59.97720866,,,,space,0.3004,,,,,,,,,,f,1,1.6669,,0,49,49,39,1,Numbers can always be further divided,f,,
,,,,,,,,5204,2022-04-06_19h01.17.712,ImplicitInfinitySC-SLOWTASK,2021.2.3,Win32,59.97720866,,,,space,0.2864,,,,,,,,,,f,1,1.3004,,0,50,50,29,1,Space can go on forever,f,,
,,,,,,,,5204,2022-04-06_19h01.17.712,ImplicitInfinitySC-SLOWTASK,2021.2.3,Win32,59.97720866,,,,space,0.2785,,,,,,,,,,f,1,1.6345,,0,51,51,57,1,Rocks have a molecular structure,f,,
,,,,,,,,5204,2022-04-06_19h01.17.712,ImplicitInfinitySC-SLOWTASK,2021.2.3,Win32,59.97720866,,,,space,0.2704,,,,,,,,,,f,1,1.4546,,0,52,52,52,1,Frogs reproduce,f,,
,,,,,,,,5204,2022-04-06_19h01.17.712,ImplicitInfinitySC-SLOWTASK,2021.2.3,Win32,59.97720866,,,,space,0.3164,,,,,,,,,,j,1,1.2601,,0,53,53,120,1,A truck is an animal,j,,
,,,,,,,,5204,2022-04-06_19h01.17.712,ImplicitInfinitySC-SLOWTASK,2021.2.3,Win32,59.97720866,,,,space,0.1867,,,,,,,,,,j,1,1.3842,,0,54,54,111,1,A circle is a flavor,j,,
,,,,,,,,5204,2022-04-06_19h01.17.712,ImplicitInfinitySC-SLOWTASK,2021.2.3,Win32,59.97720866,,,,space,0.2929,,,,,,,,,,f,1,1.7944,,0,55,55,90,1,A triangle is not an animal,f,,
,,,,,,,,5204,2022-04-06_19h01.17.712,ImplicitInfinitySC-SLOWTASK,2021.2.3,Win32,59.97720866,,,,space,0.2567,,,,,,,,,,f,1,1.3666,,0,56,56,35,1,Numbers are endless,f,,
,,,,,,,,5204,2022-04-06_19h01.17.712,ImplicitInfinitySC-SLOWTASK,2021.2.3,Win32,59.97720866,,,,space,0.2938,,,,,,,,,,j,1,1.7167,,0,57,57,125,1,There are ninty states in the United States,j,,
,,,,,,,,5204,2022-04-06_19h01.17.712,ImplicitInfinitySC-SLOWTASK,2021.2.3,Win32,59.97720866,,,,space,0.444,,,,,,,,,,j,1,1.7531,,0,58,58,5,1,A minute can go on forever,j,,
,,,,,,,,5204,2022-04-06_19h01.17.712,ImplicitInfinitySC-SLOWTASK,2021.2.3,Win32,59.97720866,,,,space,0.4175,,,,,,,,,,f,1,1.2774,,0,59,59,50,1,Turtles need nutrients,f,,
,,,,,,,,5204,2022-04-06_19h01.17.712,ImplicitInfinitySC-SLOWTASK,2021.2.3,Win32,59.97720866,,,,space,0.3098,,,,,,,,,,j,1,1.1501,,0,60,60,79,1,Forks are alive,j,,
,,,,,,,,5204,2022-04-06_19h01.17.712,ImplicitInfinitySC-SLOWTASK,2021.2.3,Win32,59.97720866,,,,space,0.206,,,,,,,,,,j,1,1.3505,,0,61,61,80,1,Mittens need nutrients,j,,
,,,,,,,,5204,2022-04-06_19h01.17.712,ImplicitInfinitySC-SLOWTASK,2021.2.3,Win32,59.97720866,,,,space,0.2346,,,,,,,,,,j,1,1.3384,,0,62,62,126,1,Humans can breathe water,j,,
,,,,,,,,5204,2022-04-06_19h01.17.712,ImplicitInfinitySC-SLOWTASK,2021.2.3,Win32,59.97720866,,,,space,0.2839,,,,,,,,,,f,0,1.9119,,0,63,63,1,1,A minute is infinite,j,,
,,,,,,,,5204,2022-04-06_19h01.17.712,ImplicitInfinitySC-SLOWTASK,2021.2.3,Win32,59.97720866,,,,space,0.2342,,,,,,,,,,f,1,2.1852,,0,64,64,56,1,Diamonds have a molecular structure,f,,
,,,,,,,,5204,2022-04-06_19h01.17.712,ImplicitInfinitySC-SLOWTASK,2021.2.3,Win32,59.97720866,,,,space,0.184,,,,,,,,,,j,1,1.5225,,0,65,65,124,1,The president of the United States is Oprah,j,,
,,,,,,,,5204,2022-04-06_19h01.17.712,ImplicitInfinitySC-SLOWTASK,2021.2.3,Win32,59.97720866,,,,space,0.3217,,,,,,,,,,j,1,1.1899,,0,66,66,81,1,Tables reproduce,j,,
,,,,,,,,5204,2022-04-06_19h01.17.712,ImplicitInfinitySC-SLOWTASK,2021.2.3,Win32,59.97720866,,,,space,0.2373,,,,,,,,,,j,1,1.2514,,0,67,67,114,1,Lightbulbs are made of clay,j,,
,,,,,,,,5204,2022-04-06_19h01.17.712,ImplicitInfinitySC-SLOWTASK,2021.2.3,Win32,59.97720866,,,,space,0.1348,,,,,,,,,,j,1,1.3353,,0,68,68,117,1,Dolphins cannot swim in the ocean,j,,
,,,,,,,,5204,2022-04-06_19h01.17.712,ImplicitInfinitySC-SLOWTASK,2021.2.3,Win32,59.97720866,,,,space,0.2159,,,,,,,,,,j,1,1.0172,,0,69,69,62,1,Helicopters reproduce,j,,
,,,,,,,,5204,2022-04-06_19h01.17.712,ImplicitInfinitySC-SLOWTASK,2021.2.3,Win32,59.97720866,,,,space,0.2251,,,,,,,,,,f,1,1.8488,,0,70,70,74,1,Foam is composed of matter,f,,
,,,,,,,,5204,2022-04-06_19h01.17.712,ImplicitInfinitySC-SLOWTASK,2021.2.3,Win32,59.97720866,,,,space,0.192,,,,,,,,,,f,1,1.4049,,0,71,71,68,1,Algae is alive,f,,
,,,,,,,,5204,2022-04-06_19h01.17.712,ImplicitInfinitySC-SLOWTASK,2021.2.3,Win32,59.97720866,,,,space,0.1505,,,,,,,,,,f,1,1.5856,,0,72,72,70,1,Grass needs nutrients,f,,
,,,,,,,,5204,2022-04-06_19h01.17.712,ImplicitInfinitySC-SLOWTASK,2021.2.3,Win32,59.97720866,,,,space,0.1574,,,,,,,,,,j,1,1.5488,,0,73,73,67,1,Gravity has a molecular structure,j,,
,,,,,,,,5204,2022-04-06_19h01.17.712,ImplicitInfinitySC-SLOWTASK,2021.2.3,Win32,59.97720866,,,,space,0.1361,,,,,,,,,,j,1,1.2241,,0,74,74,65,1,Shadows are composed of matter,j,,
,,,,,,,,5204,2022-04-06_19h01.17.712,ImplicitInfinitySC-SLOWTASK,2021.2.3,Win32,59.97720866,,,,space,0.1536,,,,,,,,,,j,1,1.2193,,0,75,75,86,1,Words have a molecular structure,j,,
,,,,,,,,5204,2022-04-06_19h01.17.712,ImplicitInfinitySC-SLOWTASK,2021.2.3,Win32,59.97720866,,,,space,0.2924,,,,,,,,,,f,1,0.958,,0,76,76,88,1,This sentence is written in English,f,,
,,,,,,,,5204,2022-04-06_19h01.17.712,ImplicitInfinitySC-SLOWTASK,2021.2.3,Win32,59.97720866,,,,space,0.1583,,,,,,,,,,j,1,1.1842,,0,77,77,112,1,Dinosaurs are not extinct,j,,
,,,,,,,,5204,2022-04-06_19h01.17.712,ImplicitInfinitySC-SLOWTASK,2021.2.3,Win32,59.97720866,,,,space,0.135,,,,,,,,,,j,1,1.1002,,0,78,78,119,1,A motorcycle is a person,j,,
,,,,,,,,5204,2022-04-06_19h01.17.712,ImplicitInfinitySC-SLOWTASK,2021.2.3,Win32,59.97720866,,,,space,0.0919,,,,,,,,,,j,1,1.9997,,0,79,79,28,1,Space cannot go on forever,j,,
,,,,,,,,5204,2022-04-06_19h01.17.712,ImplicitInfinitySC-SLOWTASK,2021.2.3,Win32,59.97720866,,,,space,0.2226,,,,,,,,,,j,1,2.0009,,0,80,80,13,1,An inch can go on forever,j,,
,,,,,,,,5204,2022-04-06_19h01.17.712,ImplicitInfinitySC-SLOWTASK,2021.2.3,Win32,59.97720866,,,,,,,,,,,,,,,,,,,,,,,,,,,
