SlowInstrKey.keys,SlowInstrKey.rt,SlowInstrLoop.thisRepN,SlowInstrLoop.thisTrialN,SlowInstrLoop.thisN,SlowInstrLoop.thisIndex,SlowInstrLoop.ran,SlowInstructions,participant,date,expName,psychopyVersion,OS,frameRate,key_resp_5.keys,key_resp_5.corr,key_resp_4.keys,slowpracticeloop.thisRepN,slowpracticeloop.thisTrialN,slowpracticeloop.thisN,slowpracticeloop.thisIndex,slowpracticeloop.ran,practicetext,practicecorrect,key_resp_4.rt,key_resp_5.rt,key_resp_3.keys,key_resp_3.rt,SlowKey.keys,SlowKey.corr,SlowKey.rt,encouragekey.keys,SlowLoop.thisRepN,SlowLoop.thisTrialN,SlowLoop.thisN,SlowLoop.thisIndex,SlowLoop.ran,Statement,Correct,encouragekey.rt,endstudykey.keys,endstudykey.rt
space,6.6438,0,0,0,0,1,"You will be shown a total of 80 statements pertaining to mathematics, science, and social concepts. Your task is to determine whether each statement is true or false. Some statements will be difficult and some will be easier.  We do not expect you to know the correct answer for all 80 statements.  Press SPACE to Continue",5624,2022-04-06_19h16.24.790,ImplicitInfinitySC-SLOWTASK,2021.2.3,Win32,60.2300789,,,,,,,,,,,,,,,,,,,,,,,,,,,,
space,6.772,0,1,1,1,1,"We urge you to try your best and take your time. Each statement will appear on your screen and you will have 10 seconds to decide if it is true or false. You will hear a beep at 6 seconds that will prompt you to respond within the next 4 seconds. If you fail to respond within this time, the trial will be counted as incorrect and the next statement will appear. Press SPACE to continue",5624,2022-04-06_19h16.24.790,ImplicitInfinitySC-SLOWTASK,2021.2.3,Win32,60.2300789,,,,,,,,,,,,,,,,,,,,,,,,,,,,
,,0,2,2,2,1,"If the statement is true, you will press the “F” key on your keyboard with your left pointer finger; if the statement is false, you will press the “J” key on your keyboard with your right pointer finger. Press SPACE to continue",5624,2022-04-06_19h16.24.790,ImplicitInfinitySC-SLOWTASK,2021.2.3,Win32,60.2300789,,,,,,,,,,,,,,,,,,,,,,,,,,,,
,,0,3,3,3,1,Take your time and go slowly! You have 10 seconds to answer! Press SPACE to continue. ,5624,2022-04-06_19h16.24.790,ImplicitInfinitySC-SLOWTASK,2021.2.3,Win32,60.2300789,,,,,,,,,,,,,,,,,,,,,,,,,,,,
,,,,,,,,5624,2022-04-06_19h16.24.790,ImplicitInfinitySC-SLOWTASK,2021.2.3,Win32,60.2300789,,0,,0,0,0,4,1,Humans cannot breathe water,f,,,,,,,,,,,,,,,,,,
,,,,,,,,5624,2022-04-06_19h16.24.790,ImplicitInfinitySC-SLOWTASK,2021.2.3,Win32,60.2300789,,0,space,0,1,1,8,1,Mississippi is a country,j,4.8136,,,,,,,,,,,,,,,,,
,,,,,,,,5624,2022-04-06_19h16.24.790,ImplicitInfinitySC-SLOWTASK,2021.2.3,Win32,60.2300789,f,1,space,0,2,2,2,1,Magenta is a color,f,2.4931,2.2744,,,,,,,,,,,,,,,,
,,,,,,,,5624,2022-04-06_19h16.24.790,ImplicitInfinitySC-SLOWTASK,2021.2.3,Win32,60.2300789,f,1,space,0,3,3,3,1,A clock is used to tell time,f,0.6114,2.1509,,,,,,,,,,,,,,,,
,,,,,,,,5624,2022-04-06_19h16.24.790,ImplicitInfinitySC-SLOWTASK,2021.2.3,Win32,60.2300789,j,1,space,0,4,4,7,1,The Earth is a star,j,0.7285,1.5672,,,,,,,,,,,,,,,,
,,,,,,,,5624,2022-04-06_19h16.24.790,ImplicitInfinitySC-SLOWTASK,2021.2.3,Win32,60.2300789,f,0,space,0,5,5,6,1,Jupiter is the planet we live on,j,0.5807,1.3844,,,,,,,,,,,,,,,,
,,,,,,,,5624,2022-04-06_19h16.24.790,ImplicitInfinitySC-SLOWTASK,2021.2.3,Win32,60.2300789,j,1,space,0,6,6,5,1,A truck is an animal,j,0.9544,1.5173,,,,,,,,,,,,,,,,
,,,,,,,,5624,2022-04-06_19h16.24.790,ImplicitInfinitySC-SLOWTASK,2021.2.3,Win32,60.2300789,j,1,space,0,7,7,9,1,Humans cannot eat food,j,0.5442,2.2088,,,,,,,,,,,,,,,,
,,,,,,,,5624,2022-04-06_19h16.24.790,ImplicitInfinitySC-SLOWTASK,2021.2.3,Win32,60.2300789,f,1,space,0,8,8,0,1,A circle is a shape,f,0.6518,2.3839,,,,,,,,,,,,,,,,
,,,,,,,,5624,2022-04-06_19h16.24.790,ImplicitInfinitySC-SLOWTASK,2021.2.3,Win32,60.2300789,f,1,space,0,9,9,1,1,Dinosaurs are extinct,f,0.4171,1.8037,,,,,,,,,,,,,,,,
,,,,,,,,5624,2022-04-06_19h16.24.790,ImplicitInfinitySC-SLOWTASK,2021.2.3,Win32,60.2300789,,,space,,,,,,,,3.5002,,space,19.6393,f,1,1.9084,,0,0,0,21,1,Time can go on forever,f,,,
,,,,,,,,5624,2022-04-06_19h16.24.790,ImplicitInfinitySC-SLOWTASK,2021.2.3,Win32,60.2300789,,,space,,,,,,,,0.94,,,,j,1,2.0175,,0,1,1,87,1,Dreams have a molecular structure,j,,,
,,,,,,,,5624,2022-04-06_19h16.24.790,ImplicitInfinitySC-SLOWTASK,2021.2.3,Win32,60.2300789,,,space,,,,,,,,0.5945,,,,f,1,1.4114,,0,2,2,93,1,Magenta is a color,f,,,
,,,,,,,,5624,2022-04-06_19h16.24.790,ImplicitInfinitySC-SLOWTASK,2021.2.3,Win32,60.2300789,,,space,,,,,,,,0.6206,,,,f,1,2.6429,,0,3,3,12,1,An inch cannot go on forever,f,,,
,,,,,,,,5624,2022-04-06_19h16.24.790,ImplicitInfinitySC-SLOWTASK,2021.2.3,Win32,60.2300789,,,space,,,,,,,,0.3198,,,,f,1,1.7998,,0,4,4,99,1,A motorcycle is a vehicle,f,,,
,,,,,,,,5624,2022-04-06_19h16.24.790,ImplicitInfinitySC-SLOWTASK,2021.2.3,Win32,60.2300789,,,space,,,,,,,,0.3186,,,,f,1,1.9896,,0,5,5,37,1,Numbers can go on forever,f,,,
,,,,,,,,5624,2022-04-06_19h16.24.790,ImplicitInfinitySC-SLOWTASK,2021.2.3,Win32,60.2300789,,,space,,,,,,,,0.3143,,,,f,1,1.4969,,0,6,6,94,1,Orange is a color,f,,,
,,,,,,,,5624,2022-04-06_19h16.24.790,ImplicitInfinitySC-SLOWTASK,2021.2.3,Win32,60.2300789,,,space,,,,,,,,0.4684,,,,j,1,2.0325,,0,7,7,83,1,Songs can be put in a container,j,,,
,,,,,,,,5624,2022-04-06_19h16.24.790,ImplicitInfinitySC-SLOWTASK,2021.2.3,Win32,60.2300789,,,space,,,,,,,,0.5319,,,,f,1,2.5636,,0,8,8,77,1,Saliva has a molecular structure,f,,,
,,,,,,,,5624,2022-04-06_19h16.24.790,ImplicitInfinitySC-SLOWTASK,2021.2.3,Win32,60.2300789,,,space,,,,,,,,0.4012,,,,j,1,1.819,,0,9,9,13,1,An inch can go on forever,j,,,
,,,,,,,,5624,2022-04-06_19h16.24.790,ImplicitInfinitySC-SLOWTASK,2021.2.3,Win32,60.2300789,,,space,,,,,,,,0.5653,,,,f,1,1.91,,0,10,10,44,1,The number five cannot go on forever,f,,,
,,,,,,,,5624,2022-04-06_19h16.24.790,ImplicitInfinitySC-SLOWTASK,2021.2.3,Win32,60.2300789,,,space,,,,,,,,0.3647,,,,f,1,2.2635,,0,11,11,68,1,Algae is alive,f,,,
,,,,,,,,5624,2022-04-06_19h16.24.790,ImplicitInfinitySC-SLOWTASK,2021.2.3,Win32,60.2300789,,,space,,,,,,,,0.3323,,,,f,1,2.0214,,0,12,12,8,1,An inch is finite,f,,,
,,,,,,,,5624,2022-04-06_19h16.24.790,ImplicitInfinitySC-SLOWTASK,2021.2.3,Win32,60.2300789,,,space,,,,,,,,0.4113,,,,j,1,1.8128,,0,13,13,112,1,Dinosaurs are not extinct,j,,,
,,,,,,,,5624,2022-04-06_19h16.24.790,ImplicitInfinitySC-SLOWTASK,2021.2.3,Win32,60.2300789,,,space,,,,,,,,0.4304,,,,j,1,2.5418,,0,14,14,127,1,A zebra is used to write,j,,,
,,,,,,,,5624,2022-04-06_19h16.24.790,ImplicitInfinitySC-SLOWTASK,2021.2.3,Win32,60.2300789,,,space,,,,,,,,0.3511,,,,j,1,1.7803,,0,15,15,80,1,Mittens need nutrients,j,,,
,,,,,,,,5624,2022-04-06_19h16.24.790,ImplicitInfinitySC-SLOWTASK,2021.2.3,Win32,60.2300789,,,space,,,,,,,,0.3177,,,,j,1,1.8299,,0,16,16,126,1,Humans can breathe water,j,,,
,,,,,,,,5624,2022-04-06_19h16.24.790,ImplicitInfinitySC-SLOWTASK,2021.2.3,Win32,60.2300789,,,space,,,,,,,,0.7331,,,,f,1,2.1187,,0,17,17,31,1,Space can always be further divided,f,,,
,,,,,,,,5624,2022-04-06_19h16.24.790,ImplicitInfinitySC-SLOWTASK,2021.2.3,Win32,60.2300789,,,space,,,,,,,,0.5337,,,,f,1,1.8166,,0,18,18,105,1,There are fifty states in the United States,f,,,
,,,,,,,,5624,2022-04-06_19h16.24.790,ImplicitInfinitySC-SLOWTASK,2021.2.3,Win32,60.2300789,,,space,,,,,,,,0.3911,,,,j,1,1.7688,,0,19,19,16,1,Time is finite,j,,,
,,,,,,,,5624,2022-04-06_19h16.24.790,ImplicitInfinitySC-SLOWTASK,2021.2.3,Win32,60.2300789,,,space,,,,,,,,0.3676,,,,j,1,1.707,,0,20,20,45,1,The number five can go on forever,j,,,
,,,,,,,,5624,2022-04-06_19h16.24.790,ImplicitInfinitySC-SLOWTASK,2021.2.3,Win32,60.2300789,,,space,,,,,,,,0.4182,,,,j,1,2.1673,,0,21,21,67,1,Gravity has a molecular structure,j,,,
,,,,,,,,5624,2022-04-06_19h16.24.790,ImplicitInfinitySC-SLOWTASK,2021.2.3,Win32,60.2300789,,,space,,,,,,,,0.467,,,,f,1,1.5442,,0,22,22,89,1,A square is a shape,f,,,
,,,,,,,,5624,2022-04-06_19h16.24.790,ImplicitInfinitySC-SLOWTASK,2021.2.3,Win32,60.2300789,,,space,,,,,,,,0.3125,,,,j,1,1.5011,,0,23,23,11,1,An inch is endless,j,,,
,,,,,,,,5624,2022-04-06_19h16.24.790,ImplicitInfinitySC-SLOWTASK,2021.2.3,Win32,60.2300789,,,space,,,,,,,,0.4781,,,,f,1,2.2292,,0,24,24,25,1,Space is infinite,f,,,
,,,,,,,,5624,2022-04-06_19h16.24.790,ImplicitInfinitySC-SLOWTASK,2021.2.3,Win32,60.2300789,,,space,,,,,,,,0.3262,,,,f,1,2.9842,,0,25,25,7,1,A minute can always be further divided,f,,,
,,,,,,,,5624,2022-04-06_19h16.24.790,ImplicitInfinitySC-SLOWTASK,2021.2.3,Win32,60.2300789,,,space,,,,,,,,0.3005,,,,f,1,1.4339,,0,26,26,19,1,Time is endless,f,,,
,,,,,,,,5624,2022-04-06_19h16.24.790,ImplicitInfinitySC-SLOWTASK,2021.2.3,Win32,60.2300789,,,space,,,,,,,,0.3001,,,,j,1,2.2337,,0,27,27,117,1,Dolphins cannot swim in the ocean,j,,,
,,,,,,,,5624,2022-04-06_19h16.24.790,ImplicitInfinitySC-SLOWTASK,2021.2.3,Win32,60.2300789,,,space,,,,,,,,0.3505,,,,j,1,2.351,,0,28,28,82,1,Stones reproduce,j,,,
,,,,,,,,5624,2022-04-06_19h16.24.790,ImplicitInfinitySC-SLOWTASK,2021.2.3,Win32,60.2300789,,,space,,,,,,,,0.3634,,,,f,1,2.824,,0,29,29,23,1,Time can always be further divided,f,,,
,,,,,,,,5624,2022-04-06_19h16.24.790,ImplicitInfinitySC-SLOWTASK,2021.2.3,Win32,60.2300789,,,space,,,,,,,,0.5439,,,,f,1,1.7499,,0,30,30,88,1,This sentence is written in English,f,,,
,,,,,,,,5624,2022-04-06_19h16.24.790,ImplicitInfinitySC-SLOWTASK,2021.2.3,Win32,60.2300789,,,space,,,,,,,,0.6912,,,,j,0,1.9579,,0,31,31,102,1,The Earth is a planet,f,,,
,,,,,,,,5624,2022-04-06_19h16.24.790,ImplicitInfinitySC-SLOWTASK,2021.2.3,Win32,60.2300789,,,space,,,,,,,,0.4891,,,,j,1,2.6512,,0,32,32,5,1,A minute can go on forever,j,,,
,,,,,,,,5624,2022-04-06_19h16.24.790,ImplicitInfinitySC-SLOWTASK,2021.2.3,Win32,60.2300789,,,space,,,,,,,,0.7748,,,,j,1,2.9953,,0,33,33,46,1,The number five cannot always be further divided,j,,,
,,,,,,,,5624,2022-04-06_19h16.24.790,ImplicitInfinitySC-SLOWTASK,2021.2.3,Win32,60.2300789,,,space,,,,,,,,0.4415,,,,j,1,2.9022,,0,34,34,124,1,The president of the United States is Oprah,j,,,
,,,,,,,,5624,2022-04-06_19h16.24.790,ImplicitInfinitySC-SLOWTASK,2021.2.3,Win32,60.2300789,,,space,,,,,,,,0.4002,,,,f,1,1.4872,,0,35,35,70,1,Grass needs nutrients,f,,,
,,,,,,,,5624,2022-04-06_19h16.24.790,ImplicitInfinitySC-SLOWTASK,2021.2.3,Win32,60.2300789,,,space,,,,,,,,0.3587,,,,j,1,1.8049,,0,36,36,122,1,The Earth is a star,j,,,
,,,,,,,,5624,2022-04-06_19h16.24.790,ImplicitInfinitySC-SLOWTASK,2021.2.3,Win32,60.2300789,,,space,,,,,,,,0.355,,,,f,1,2.3031,,0,37,37,4,1,A minute cannot go on forever,f,,,
,,,,,,,,5624,2022-04-06_19h16.24.790,ImplicitInfinitySC-SLOWTASK,2021.2.3,Win32,60.2300789,,,space,,,,,,,,0.3766,,,,f,1,2.1171,,0,38,38,71,1,Oaks reproduce,f,,,
,,,,,,,,5624,2022-04-06_19h16.24.790,ImplicitInfinitySC-SLOWTASK,2021.2.3,Win32,60.2300789,,,space,,,,,,,,0.4344,,,,j,1,1.7702,,0,39,39,26,1,Space has an end,j,,,
,,,,,,,,5624,2022-04-06_19h16.24.790,ImplicitInfinitySC-SLOWTASK,2021.2.3,Win32,60.2300789,,,space,,,,,,,,0.9261,,,,j,1,2.6409,space,0,40,40,64,1,Echoes are composed of matter,j,6.4668,,
,,,,,,,,5624,2022-04-06_19h16.24.790,ImplicitInfinitySC-SLOWTASK,2021.2.3,Win32,60.2300789,,,space,,,,,,,,0.9873,,,,f,1,1.4678,,0,41,41,49,1,Pelicans are alive,f,,,
,,,,,,,,5624,2022-04-06_19h16.24.790,ImplicitInfinitySC-SLOWTASK,2021.2.3,Win32,60.2300789,,,space,,,,,,,,0.5831,,,,f,1,2.0001,,0,42,42,74,1,Foam is composed of matter,f,,,
,,,,,,,,5624,2022-04-06_19h16.24.790,ImplicitInfinitySC-SLOWTASK,2021.2.3,Win32,60.2300789,,,space,,,,,,,,0.3874,,,,f,1,2.5044,,0,43,43,40,1,The number five is finite,f,,,
,,,,,,,,5624,2022-04-06_19h16.24.790,ImplicitInfinitySC-SLOWTASK,2021.2.3,Win32,60.2300789,,,space,,,,,,,,0.4258,,,,j,1,3.1065,,0,44,44,9,1,An inch is infinite,j,,,
,,,,,,,,5624,2022-04-06_19h16.24.790,ImplicitInfinitySC-SLOWTASK,2021.2.3,Win32,60.2300789,,,space,,,,,,,,0.3363,,,,f,1,2.4227,,0,45,45,55,1,Concrete is composed of matter,f,,,
,,,,,,,,5624,2022-04-06_19h16.24.790,ImplicitInfinitySC-SLOWTASK,2021.2.3,Win32,60.2300789,,,space,,,,,,,,0.307,,,,f,1,1.7389,,0,46,46,17,1,Time is infinite,f,,,
,,,,,,,,5624,2022-04-06_19h16.24.790,ImplicitInfinitySC-SLOWTASK,2021.2.3,Win32,60.2300789,,,space,,,,,,,,0.3219,,,,j,1,1.943,,0,47,47,108,1,This sentence is written in Spanish,j,,,
,,,,,,,,5624,2022-04-06_19h16.24.790,ImplicitInfinitySC-SLOWTASK,2021.2.3,Win32,60.2300789,,,space,,,,,,,,1.0545,,,,f,1,3.778,,0,48,48,73,1,Bubbles can be put in a container,f,,,
,,,,,,,,5624,2022-04-06_19h16.24.790,ImplicitInfinitySC-SLOWTASK,2021.2.3,Win32,60.2300789,,,space,,,,,,,,0.3448,,,,j,1,1.6891,,0,49,49,121,1,Jupiter is the planet we live on,j,,,
,,,,,,,,5624,2022-04-06_19h16.24.790,ImplicitInfinitySC-SLOWTASK,2021.2.3,Win32,60.2300789,,,space,,,,,,,,0.3836,,,,f,1,1.8267,,0,50,50,10,1,An inch has an end,f,,,
,,,,,,,,5624,2022-04-06_19h16.24.790,ImplicitInfinitySC-SLOWTASK,2021.2.3,Win32,60.2300789,,,space,,,,,,,,0.4933,,,,j,1,4.8223,,0,51,51,6,1,A minute cannot always be further divided,j,,,
,,,,,,,,5624,2022-04-06_19h16.24.790,ImplicitInfinitySC-SLOWTASK,2021.2.3,Win32,60.2300789,,,space,,,,,,,,0.5263,,,,f,1,3.1566,,0,52,52,47,1,The number five can always be further divided,f,,,
,,,,,,,,5624,2022-04-06_19h16.24.790,ImplicitInfinitySC-SLOWTASK,2021.2.3,Win32,60.2300789,,,space,,,,,,,,0.5212,,,,f,0,5.0133,,0,53,53,59,1,Comets are alive,j,,,
,,,,,,,,5624,2022-04-06_19h16.24.790,ImplicitInfinitySC-SLOWTASK,2021.2.3,Win32,60.2300789,,,space,,,,,,,,0.3508,,,,j,1,1.6696,,0,54,54,111,1,A circle is a flavor,j,,,
,,,,,,,,5624,2022-04-06_19h16.24.790,ImplicitInfinitySC-SLOWTASK,2021.2.3,Win32,60.2300789,,,space,,,,,,,,0.4052,,,,f,1,1.7131,,0,55,55,97,1,Dolphins can swim in the ocean,f,,,
,,,,,,,,5624,2022-04-06_19h16.24.790,ImplicitInfinitySC-SLOWTASK,2021.2.3,Win32,60.2300789,,,space,,,,,,,,0.4007,,,,j,1,2.2368,,0,56,56,20,1,Time cannot go on forever,j,,,
,,,,,,,,5624,2022-04-06_19h16.24.790,ImplicitInfinitySC-SLOWTASK,2021.2.3,Win32,60.2300789,,,space,,,,,,,,0.4391,,,,f,1,2.3253,,0,57,57,15,1,An inch can be always further divided,f,,,
,,,,,,,,5624,2022-04-06_19h16.24.790,ImplicitInfinitySC-SLOWTASK,2021.2.3,Win32,60.2300789,,,space,,,,,,,,0.367,,,,j,1,2.0612,,0,58,58,120,1,A truck is an animal,j,,,
,,,,,,,,5624,2022-04-06_19h16.24.790,ImplicitInfinitySC-SLOWTASK,2021.2.3,Win32,60.2300789,,,space,,,,,,,,0.4374,,,,j,1,2.0346,,0,59,59,36,1,Numbers cannot go on forever,j,,,
,,,,,,,,5624,2022-04-06_19h16.24.790,ImplicitInfinitySC-SLOWTASK,2021.2.3,Win32,60.2300789,,,space,,,,,,,,0.405,,,,f,1,2.6076,,0,60,60,107,1,A pencil is used to write,f,,,
,,,,,,,,5624,2022-04-06_19h16.24.790,ImplicitInfinitySC-SLOWTASK,2021.2.3,Win32,60.2300789,,,space,,,,,,,,0.4339,,,,j,1,1.9554,,0,61,61,62,1,Helicopters reproduce,j,,,
,,,,,,,,5624,2022-04-06_19h16.24.790,ImplicitInfinitySC-SLOWTASK,2021.2.3,Win32,60.2300789,,,space,,,,,,,,0.3806,,,,f,1,1.8661,,0,62,62,76,1,Pollen has a molecular structure,f,,,
,,,,,,,,5624,2022-04-06_19h16.24.790,ImplicitInfinitySC-SLOWTASK,2021.2.3,Win32,60.2300789,,,space,,,,,,,,0.2841,,,,f,1,1.7352,,0,63,63,96,1,Fish can swim in the ocean,f,,,
,,,,,,,,5624,2022-04-06_19h16.24.790,ImplicitInfinitySC-SLOWTASK,2021.2.3,Win32,60.2300789,,,space,,,,,,,,0.3543,,,,j,1,1.9624,,0,64,64,60,1,Robots need nutrients,j,,,
,,,,,,,,5624,2022-04-06_19h16.24.790,ImplicitInfinitySC-SLOWTASK,2021.2.3,Win32,60.2300789,,,space,,,,,,,,0.3512,,,,j,1,1.6045,,0,65,65,18,1,Time has an end,j,,,
,,,,,,,,5624,2022-04-06_19h16.24.790,ImplicitInfinitySC-SLOWTASK,2021.2.3,Win32,60.2300789,,,space,,,,,,,,0.3245,,,,j,1,1.6802,,0,66,66,110,1,A triangle is an animal,j,,,
,,,,,,,,5624,2022-04-06_19h16.24.790,ImplicitInfinitySC-SLOWTASK,2021.2.3,Win32,60.2300789,,,space,,,,,,,,0.3334,,,,f,1,1.5061,,0,67,67,90,1,A triangle is not an animal,f,,,
,,,,,,,,5624,2022-04-06_19h16.24.790,ImplicitInfinitySC-SLOWTASK,2021.2.3,Win32,60.2300789,,,space,,,,,,,,0.4365,,,,j,1,8.1169,,0,68,68,38,1,Numbers cannot always be further divided,j,,,
,,,,,,,,5624,2022-04-06_19h16.24.790,ImplicitInfinitySC-SLOWTASK,2021.2.3,Win32,60.2300789,,,space,,,,,,,,0.4353,,,,f,1,3.2069,,0,69,69,53,1,Bricks can be put in a container,f,,,
,,,,,,,,5624,2022-04-06_19h16.24.790,ImplicitInfinitySC-SLOWTASK,2021.2.3,Win32,60.2300789,,,space,,,,,,,,0.3506,,,,f,1,2.3863,,0,70,70,75,1,Frost is composed of matter,f,,,
,,,,,,,,5624,2022-04-06_19h16.24.790,ImplicitInfinitySC-SLOWTASK,2021.2.3,Win32,60.2300789,,,space,,,,,,,,0.3841,,,,j,1,2.9043,,0,71,71,1,1,A minute is infinite,j,,,
,,,,,,,,5624,2022-04-06_19h16.24.790,ImplicitInfinitySC-SLOWTASK,2021.2.3,Win32,60.2300789,,,space,,,,,,,,0.2508,,,,f,1,1.2676,,0,72,72,100,1,A truck is a vehicle,f,,,
,,,,,,,,5624,2022-04-06_19h16.24.790,ImplicitInfinitySC-SLOWTASK,2021.2.3,Win32,60.2300789,,,space,,,,,,,,0.3172,,,,j,1,1.7016,,0,73,73,114,1,Lightbulbs are made of clay,j,,,
,,,,,,,,5624,2022-04-06_19h16.24.790,ImplicitInfinitySC-SLOWTASK,2021.2.3,Win32,60.2300789,,,space,,,,,,,,0.4542,,,,f,1,1.7033,,0,74,74,29,1,Space can go on forever,f,,,
,,,,,,,,5624,2022-04-06_19h16.24.790,ImplicitInfinitySC-SLOWTASK,2021.2.3,Win32,60.2300789,,,space,,,,,,,,0.3896,,,,j,1,2.7936,,0,75,75,65,1,Shadows are composed of matter,j,,,
,,,,,,,,5624,2022-04-06_19h16.24.790,ImplicitInfinitySC-SLOWTASK,2021.2.3,Win32,60.2300789,,,space,,,,,,,,0.57,,,,f,1,1.4902,,0,76,76,48,1,Crocodiles are alive,f,,,
,,,,,,,,5624,2022-04-06_19h16.24.790,ImplicitInfinitySC-SLOWTASK,2021.2.3,Win32,60.2300789,,,space,,,,,,,,0.3506,,,,f,1,1.5111,,0,77,77,95,1,Yellow is a color,f,,,
,,,,,,,,5624,2022-04-06_19h16.24.790,ImplicitInfinitySC-SLOWTASK,2021.2.3,Win32,60.2300789,,,space,,,,,,,,0.3284,,,,f,1,1.5019,,0,78,78,51,1,Tigers reproduce,f,,,
,,,,,,,,5624,2022-04-06_19h16.24.790,ImplicitInfinitySC-SLOWTASK,2021.2.3,Win32,60.2300789,,,space,,,,,,,,0.3095,,,,f,1,1.5501,,0,79,79,98,1,A clock is used to tell time,f,,,
,,,,,,,,5624,2022-04-06_19h16.24.790,ImplicitInfinitySC-SLOWTASK,2021.2.3,Win32,60.2300789,,,space,,,,,,,,0.4257,,,,f,1,2.8591,,0,80,80,106,1,Humans cannot breathe water,f,,,
,,,,,,,,5624,2022-04-06_19h16.24.790,ImplicitInfinitySC-SLOWTASK,2021.2.3,Win32,60.2300789,,,,,,,,,,,,,,,,,,,,,,,,,,,space,17.2177
