SlowInstrKey.keys,SlowInstrKey.rt,SlowInstrLoop.thisRepN,SlowInstrLoop.thisTrialN,SlowInstrLoop.thisN,SlowInstrLoop.thisIndex,SlowInstrLoop.ran,SlowInstructions,participant,date,expName,psychopyVersion,OS,frameRate,key_resp_5.keys,key_resp_5.corr,key_resp_5.rt,key_resp_4.keys,key_resp_4.rt,slowpracticeloop.thisRepN,slowpracticeloop.thisTrialN,slowpracticeloop.thisN,slowpracticeloop.thisIndex,slowpracticeloop.ran,practicetext,practicecorrect,key_resp_3.keys,key_resp_3.rt,SlowKey.keys,SlowKey.corr,SlowKey.rt,encouragekey.keys,SlowLoop.thisRepN,SlowLoop.thisTrialN,SlowLoop.thisN,SlowLoop.thisIndex,SlowLoop.ran,Statement,Correct,encouragekey.rt,endstudykey.keys,endstudykey.rt
space,21.4663,0,0,0,0,1,"You will be shown a total of 80 statements pertaining to mathematics, science, and social concepts. Your task is to determine whether each statement is true or false. Some statements will be difficult and some will be easier.  We do not expect you to know the correct answer for all 80 statements.  Press SPACE to Continue",5748,2022-04-06_18h26.38.804,ImplicitInfinitySC-SLOWTASK,2021.2.3,Win32,60.08893162,,,,,,,,,,,,,,,,,,,,,,,,,,,,
space,14.1669,0,1,1,1,1,"We urge you to try your best and take your time. Each statement will appear on your screen and you will have 10 seconds to decide if it is true or false. You will hear a beep at 6 seconds that will prompt you to respond within the next 4 seconds. If you fail to respond within this time, the trial will be counted as incorrect and the next statement will appear. Press SPACE to continue",5748,2022-04-06_18h26.38.804,ImplicitInfinitySC-SLOWTASK,2021.2.3,Win32,60.08893162,,,,,,,,,,,,,,,,,,,,,,,,,,,,
space,16.6697,0,2,2,2,1,"If the statement is true, you will press the “F” key on your keyboard with your left pointer finger; if the statement is false, you will press the “J” key on your keyboard with your right pointer finger. Press SPACE to continue",5748,2022-04-06_18h26.38.804,ImplicitInfinitySC-SLOWTASK,2021.2.3,Win32,60.08893162,,,,,,,,,,,,,,,,,,,,,,,,,,,,
,,0,3,3,3,1,Take your time and go slowly! You have 10 seconds to answer! Press SPACE to continue. ,5748,2022-04-06_18h26.38.804,ImplicitInfinitySC-SLOWTASK,2021.2.3,Win32,60.08893162,,,,,,,,,,,,,,,,,,,,,,,,,,,,
,,,,,,,,5748,2022-04-06_18h26.38.804,ImplicitInfinitySC-SLOWTASK,2021.2.3,Win32,60.08893162,f,1,2.2773,space,1.3671,0,0,0,4,1,Humans cannot breathe water,f,,,,,,,,,,,,,,,,
,,,,,,,,5748,2022-04-06_18h26.38.804,ImplicitInfinitySC-SLOWTASK,2021.2.3,Win32,60.08893162,f,0,2.3475,space,1.2129,0,1,1,6,1,Jupiter is the planet we live on,j,,,,,,,,,,,,,,,,
,,,,,,,,5748,2022-04-06_18h26.38.804,ImplicitInfinitySC-SLOWTASK,2021.2.3,Win32,60.08893162,f,1,1.9547,space,0.9342,0,2,2,3,1,A clock is used to tell time,f,,,,,,,,,,,,,,,,
,,,,,,,,5748,2022-04-06_18h26.38.804,ImplicitInfinitySC-SLOWTASK,2021.2.3,Win32,60.08893162,f,1,1.6218,space,0.7476,0,3,3,0,1,A circle is a shape,f,,,,,,,,,,,,,,,,
,,,,,,,,5748,2022-04-06_18h26.38.804,ImplicitInfinitySC-SLOWTASK,2021.2.3,Win32,60.08893162,f,1,1.9007,space,0.6315,0,4,4,1,1,Dinosaurs are extinct,f,,,,,,,,,,,,,,,,
,,,,,,,,5748,2022-04-06_18h26.38.804,ImplicitInfinitySC-SLOWTASK,2021.2.3,Win32,60.08893162,j,1,1.7839,space,0.8448,0,5,5,5,1,A truck is an animal,j,,,,,,,,,,,,,,,,
,,,,,,,,5748,2022-04-06_18h26.38.804,ImplicitInfinitySC-SLOWTASK,2021.2.3,Win32,60.08893162,j,1,1.8491,space,0.8666,0,6,6,9,1,Humans cannot eat food,j,,,,,,,,,,,,,,,,
,,,,,,,,5748,2022-04-06_18h26.38.804,ImplicitInfinitySC-SLOWTASK,2021.2.3,Win32,60.08893162,f,1,1.5474,space,0.6609,0,7,7,2,1,Magenta is a color,f,,,,,,,,,,,,,,,,
,,,,,,,,5748,2022-04-06_18h26.38.804,ImplicitInfinitySC-SLOWTASK,2021.2.3,Win32,60.08893162,j,1,1.8759,space,0.5488,0,8,8,7,1,The Earth is a star,j,,,,,,,,,,,,,,,,
,,,,,,,,5748,2022-04-06_18h26.38.804,ImplicitInfinitySC-SLOWTASK,2021.2.3,Win32,60.08893162,j,1,1.7496,space,0.3842,0,9,9,8,1,Mississippi is a country,j,,,,,,,,,,,,,,,,
,,,,,,,,5748,2022-04-06_18h26.38.804,ImplicitInfinitySC-SLOWTASK,2021.2.3,Win32,60.08893162,,,,space,0.8341,,,,,,,,space,19.4358,j,1,2.3837,,0,0,0,36,1,Numbers cannot go on forever,j,,,
,,,,,,,,5748,2022-04-06_18h26.38.804,ImplicitInfinitySC-SLOWTASK,2021.2.3,Win32,60.08893162,,,,space,0.578,,,,,,,,,,j,0,2.2155,,0,1,1,8,1,An inch is finite,f,,,
,,,,,,,,5748,2022-04-06_18h26.38.804,ImplicitInfinitySC-SLOWTASK,2021.2.3,Win32,60.08893162,,,,space,0.8595,,,,,,,,,,j,1,1.734,,0,2,2,26,1,Space has an end,j,,,
,,,,,,,,5748,2022-04-06_18h26.38.804,ImplicitInfinitySC-SLOWTASK,2021.2.3,Win32,60.08893162,,,,space,0.5534,,,,,,,,,,j,1,1.5352,,0,3,3,60,1,Robots need nutrients,j,,,
,,,,,,,,5748,2022-04-06_18h26.38.804,ImplicitInfinitySC-SLOWTASK,2021.2.3,Win32,60.08893162,,,,space,0.8087,,,,,,,,,,f,0,2.8102,,0,4,4,84,1,Silence is composed of matter,j,,,
,,,,,,,,5748,2022-04-06_18h26.38.804,ImplicitInfinitySC-SLOWTASK,2021.2.3,Win32,60.08893162,,,,space,0.5689,,,,,,,,,,f,1,1.3274,,0,5,5,48,1,Crocodiles are alive,f,,,
,,,,,,,,5748,2022-04-06_18h26.38.804,ImplicitInfinitySC-SLOWTASK,2021.2.3,Win32,60.08893162,,,,space,0.6007,,,,,,,,,,j,1,2.3847,,0,6,6,83,1,Songs can be put in a container,j,,,
,,,,,,,,5748,2022-04-06_18h26.38.804,ImplicitInfinitySC-SLOWTASK,2021.2.3,Win32,60.08893162,,,,space,0.5414,,,,,,,,,,j,1,2.2793,,0,7,7,116,1,Fish cannot swim in the ocean,j,,,
,,,,,,,,5748,2022-04-06_18h26.38.804,ImplicitInfinitySC-SLOWTASK,2021.2.3,Win32,60.08893162,,,,space,0.5605,,,,,,,,,,f,1,1.6932,,0,8,8,33,1,Numbers are infinite,f,,,
,,,,,,,,5748,2022-04-06_18h26.38.804,ImplicitInfinitySC-SLOWTASK,2021.2.3,Win32,60.08893162,,,,space,0.4462,,,,,,,,,,j,1,1.3755,,0,9,9,61,1,Sailboats reproduce,j,,,
,,,,,,,,5748,2022-04-06_18h26.38.804,ImplicitInfinitySC-SLOWTASK,2021.2.3,Win32,60.08893162,,,,space,0.5838,,,,,,,,,,f,1,1.4281,,0,10,10,93,1,Magenta is a color,f,,,
,,,,,,,,5748,2022-04-06_18h26.38.804,ImplicitInfinitySC-SLOWTASK,2021.2.3,Win32,60.08893162,,,,space,0.702,,,,,,,,,,f,0,3.8658,,0,11,11,46,1,The number five cannot always be further divided,j,,,
,,,,,,,,5748,2022-04-06_18h26.38.804,ImplicitInfinitySC-SLOWTASK,2021.2.3,Win32,60.08893162,,,,space,0.5028,,,,,,,,,,f,1,2.4328,,0,12,12,12,1,An inch cannot go on forever,f,,,
,,,,,,,,5748,2022-04-06_18h26.38.804,ImplicitInfinitySC-SLOWTASK,2021.2.3,Win32,60.08893162,,,,space,0.5034,,,,,,,,,,f,1,1.8343,,0,13,13,27,1,Space is endless,f,,,
,,,,,,,,5748,2022-04-06_18h26.38.804,ImplicitInfinitySC-SLOWTASK,2021.2.3,Win32,60.08893162,,,,space,0.3749,,,,,,,,,,f,0,1.8912,,0,14,14,85,1,Thoughts are composed of matter,j,,,
,,,,,,,,5748,2022-04-06_18h26.38.804,ImplicitInfinitySC-SLOWTASK,2021.2.3,Win32,60.08893162,,,,space,0.6244,,,,,,,,,,j,1,1.7006,,0,15,15,9,1,An inch is infinite,j,,,
,,,,,,,,5748,2022-04-06_18h26.38.804,ImplicitInfinitySC-SLOWTASK,2021.2.3,Win32,60.08893162,,,,space,0.3122,,,,,,,,,,j,1,1.3262,,0,16,16,115,1,Yellow is an animal,j,,,
,,,,,,,,5748,2022-04-06_18h26.38.804,ImplicitInfinitySC-SLOWTASK,2021.2.3,Win32,60.08893162,,,,space,0.4187,,,,,,,,,,f,1,1.5701,,0,17,17,17,1,Time is infinite,f,,,
,,,,,,,,5748,2022-04-06_18h26.38.804,ImplicitInfinitySC-SLOWTASK,2021.2.3,Win32,60.08893162,,,,space,0.3865,,,,,,,,,,f,1,1.9294,,0,18,18,2,1,A minute has an end,f,,,
,,,,,,,,5748,2022-04-06_18h26.38.804,ImplicitInfinitySC-SLOWTASK,2021.2.3,Win32,60.08893162,,,,space,0.3875,,,,,,,,,,j,1,1.954,,0,19,19,28,1,Space cannot go on forever,j,,,
,,,,,,,,5748,2022-04-06_18h26.38.804,ImplicitInfinitySC-SLOWTASK,2021.2.3,Win32,60.08893162,,,,space,0.441,,,,,,,,,,f,1,2.4045,,0,20,20,42,1,The number five has an end,f,,,
,,,,,,,,5748,2022-04-06_18h26.38.804,ImplicitInfinitySC-SLOWTASK,2021.2.3,Win32,60.08893162,,,,space,0.2975,,,,,,,,,,f,1,1.7115,,0,21,21,37,1,Numbers can go on forever,f,,,
,,,,,,,,5748,2022-04-06_18h26.38.804,ImplicitInfinitySC-SLOWTASK,2021.2.3,Win32,60.08893162,,,,space,0.3653,,,,,,,,,,f,1,1.3249,,0,22,22,69,1,Bacteria are alive,f,,,
,,,,,,,,5748,2022-04-06_18h26.38.804,ImplicitInfinitySC-SLOWTASK,2021.2.3,Win32,60.08893162,,,,space,0.3915,,,,,,,,,,f,1,1.9821,,0,23,23,74,1,Foam is composed of matter,f,,,
,,,,,,,,5748,2022-04-06_18h26.38.804,ImplicitInfinitySC-SLOWTASK,2021.2.3,Win32,60.08893162,,,,space,0.3581,,,,,,,,,,j,1,1.3647,,0,24,24,123,1,Mississippi is a country,j,,,
,,,,,,,,5748,2022-04-06_18h26.38.804,ImplicitInfinitySC-SLOWTASK,2021.2.3,Win32,60.08893162,,,,space,0.4429,,,,,,,,,,f,1,1.2461,,0,25,25,95,1,Yellow is a color,f,,,
,,,,,,,,5748,2022-04-06_18h26.38.804,ImplicitInfinitySC-SLOWTASK,2021.2.3,Win32,60.08893162,,,,space,0.4155,,,,,,,,,,f,1,1.9834,,0,26,26,105,1,There are fifty states in the United States,f,,,
,,,,,,,,5748,2022-04-06_18h26.38.804,ImplicitInfinitySC-SLOWTASK,2021.2.3,Win32,60.08893162,,,,space,0.4002,,,,,,,,,,f,1,2.258,,0,27,27,57,1,Rocks have a molecular structure,f,,,
,,,,,,,,5748,2022-04-06_18h26.38.804,ImplicitInfinitySC-SLOWTASK,2021.2.3,Win32,60.08893162,,,,space,0.453,,,,,,,,,,f,0,2.6837,,0,28,28,64,1,Echoes are composed of matter,j,,,
,,,,,,,,5748,2022-04-06_18h26.38.804,ImplicitInfinitySC-SLOWTASK,2021.2.3,Win32,60.08893162,,,,space,0.3276,,,,,,,,,,j,1,1.3537,,0,29,29,79,1,Forks are alive,j,,,
,,,,,,,,5748,2022-04-06_18h26.38.804,ImplicitInfinitySC-SLOWTASK,2021.2.3,Win32,60.08893162,,,,space,0.5681,,,,,,,,,,f,0,3.7326,,0,30,30,38,1,Numbers cannot always be further divided,j,,,
,,,,,,,,5748,2022-04-06_18h26.38.804,ImplicitInfinitySC-SLOWTASK,2021.2.3,Win32,60.08893162,,,,space,0.3285,,,,,,,,,,f,1,2.1674,,0,31,31,10,1,An inch has an end,f,,,
,,,,,,,,5748,2022-04-06_18h26.38.804,ImplicitInfinitySC-SLOWTASK,2021.2.3,Win32,60.08893162,,,,space,0.3345,,,,,,,,,,f,1,1.4084,,0,32,32,91,1,A circle is a shape,f,,,
,,,,,,,,5748,2022-04-06_18h26.38.804,ImplicitInfinitySC-SLOWTASK,2021.2.3,Win32,60.08893162,,,,space,0.4756,,,,,,,,,,j,1,2.584,,0,33,33,108,1,This sentence is written in Spanish,j,,,
,,,,,,,,5748,2022-04-06_18h26.38.804,ImplicitInfinitySC-SLOWTASK,2021.2.3,Win32,60.08893162,,,,space,1.0183,,,,,,,,,,f,0,1.4353,,0,34,34,24,1,Space is finite,j,,,
,,,,,,,,5748,2022-04-06_18h26.38.804,ImplicitInfinitySC-SLOWTASK,2021.2.3,Win32,60.08893162,,,,space,0.393,,,,,,,,,,f,1,1.9275,,0,35,35,101,1,Jupiter is in our solar system,f,,,
,,,,,,,,5748,2022-04-06_18h26.38.804,ImplicitInfinitySC-SLOWTASK,2021.2.3,Win32,60.08893162,,,,space,0.564,,,,,,,,,,f,1,3.2884,,0,36,36,15,1,An inch can be always further divided,f,,,
,,,,,,,,5748,2022-04-06_18h26.38.804,ImplicitInfinitySC-SLOWTASK,2021.2.3,Win32,60.08893162,,,,space,0.2315,,,,,,,,,,j,1,2.0989,,0,37,37,1,1,A minute is infinite,j,,,
,,,,,,,,5748,2022-04-06_18h26.38.804,ImplicitInfinitySC-SLOWTASK,2021.2.3,Win32,60.08893162,,,,space,0.3536,,,,,,,,,,f,1,2.0603,,0,38,38,51,1,Tigers reproduce,f,,,
,,,,,,,,5748,2022-04-06_18h26.38.804,ImplicitInfinitySC-SLOWTASK,2021.2.3,Win32,60.08893162,,,,space,0.3868,,,,,,,,,,j,1,1.9455,,0,39,39,109,1,A square is a color,j,,,
,,,,,,,,5748,2022-04-06_18h26.38.804,ImplicitInfinitySC-SLOWTASK,2021.2.3,Win32,60.08893162,,,,space,1.2838,,,,,,,,,,j,1,2.5174,space,0,40,40,87,1,Dreams have a molecular structure,j,3.067,,
,,,,,,,,5748,2022-04-06_18h26.38.804,ImplicitInfinitySC-SLOWTASK,2021.2.3,Win32,60.08893162,,,,space,0.5236,,,,,,,,,,f,1,1.2432,,0,41,41,102,1,The Earth is a planet,f,,,
,,,,,,,,5748,2022-04-06_18h26.38.804,ImplicitInfinitySC-SLOWTASK,2021.2.3,Win32,60.08893162,,,,space,0.9415,,,,,,,,,,f,0,1.9671,,0,42,42,34,1,Numbers have an end,j,,,
,,,,,,,,5748,2022-04-06_18h26.38.804,ImplicitInfinitySC-SLOWTASK,2021.2.3,Win32,60.08893162,,,,space,0.338,,,,,,,,,,f,1,1.8609,,0,43,43,53,1,Bricks can be put in a container,f,,,
,,,,,,,,5748,2022-04-06_18h26.38.804,ImplicitInfinitySC-SLOWTASK,2021.2.3,Win32,60.08893162,,,,space,0.3859,,,,,,,,,,f,1,2.2033,,0,44,44,4,1,A minute cannot go on forever,f,,,
,,,,,,,,5748,2022-04-06_18h26.38.804,ImplicitInfinitySC-SLOWTASK,2021.2.3,Win32,60.08893162,,,,space,0.358,,,,,,,,,,j,1,2.5454,,0,45,45,125,1,There are ninty states in the United States,j,,,
,,,,,,,,5748,2022-04-06_18h26.38.804,ImplicitInfinitySC-SLOWTASK,2021.2.3,Win32,60.08893162,,,,space,0.3608,,,,,,,,,,j,1,2.034,,0,46,46,11,1,An inch is endless,j,,,
,,,,,,,,5748,2022-04-06_18h26.38.804,ImplicitInfinitySC-SLOWTASK,2021.2.3,Win32,60.08893162,,,,space,0.3245,,,,,,,,,,j,1,1.3225,,0,47,47,82,1,Stones reproduce,j,,,
,,,,,,,,5748,2022-04-06_18h26.38.804,ImplicitInfinitySC-SLOWTASK,2021.2.3,Win32,60.08893162,,,,space,0.6839,,,,,,,,,,f,1,2.7559,,0,48,48,23,1,Time can always be further divided,f,,,
,,,,,,,,5748,2022-04-06_18h26.38.804,ImplicitInfinitySC-SLOWTASK,2021.2.3,Win32,60.08893162,,,,space,0.3519,,,,,,,,,,j,1,2.1173,,0,49,49,124,1,The president of the United States is Oprah,j,,,
,,,,,,,,5748,2022-04-06_18h26.38.804,ImplicitInfinitySC-SLOWTASK,2021.2.3,Win32,60.08893162,,,,space,0.4108,,,,,,,,,,f,1,3.0131,,0,50,50,7,1,A minute can always be further divided,f,,,
,,,,,,,,5748,2022-04-06_18h26.38.804,ImplicitInfinitySC-SLOWTASK,2021.2.3,Win32,60.08893162,,,,space,0.484,,,,,,,,,,j,1,2.1607,,0,51,51,127,1,A zebra is used to write,j,,,
,,,,,,,,5748,2022-04-06_18h26.38.804,ImplicitInfinitySC-SLOWTASK,2021.2.3,Win32,60.08893162,,,,space,0.5282,,,,,,,,,,f,1,1.9007,,0,52,52,75,1,Frost is composed of matter,f,,,
,,,,,,,,5748,2022-04-06_18h26.38.804,ImplicitInfinitySC-SLOWTASK,2021.2.3,Win32,60.08893162,,,,space,0.4341,,,,,,,,,,f,1,2.4253,,0,53,53,39,1,Numbers can always be further divided,f,,,
,,,,,,,,5748,2022-04-06_18h26.38.804,ImplicitInfinitySC-SLOWTASK,2021.2.3,Win32,60.08893162,,,,space,0.4837,,,,,,,,,,f,1,1.8212,,0,54,54,88,1,This sentence is written in English,f,,,
,,,,,,,,5748,2022-04-06_18h26.38.804,ImplicitInfinitySC-SLOWTASK,2021.2.3,Win32,60.08893162,,,,space,0.4006,,,,,,,,,,f,1,1.4698,,0,55,55,68,1,Algae is alive,f,,,
,,,,,,,,5748,2022-04-06_18h26.38.804,ImplicitInfinitySC-SLOWTASK,2021.2.3,Win32,60.08893162,,,,space,0.3944,,,,,,,,,,j,0,2.9505,,0,56,56,40,1,The number five is finite,f,,,
,,,,,,,,5748,2022-04-06_18h26.38.804,ImplicitInfinitySC-SLOWTASK,2021.2.3,Win32,60.08893162,,,,space,0.2748,,,,,,,,,,j,1,2.7314,,0,57,57,43,1,The number five is endless,j,,,
,,,,,,,,5748,2022-04-06_18h26.38.804,ImplicitInfinitySC-SLOWTASK,2021.2.3,Win32,60.08893162,,,,space,0.3286,,,,,,,,,,j,1,3.535,,0,58,58,16,1,Time is finite,j,,,
,,,,,,,,5748,2022-04-06_18h26.38.804,ImplicitInfinitySC-SLOWTASK,2021.2.3,Win32,60.08893162,,,,space,0.3252,,,,,,,,,,j,1,1.8508,,0,59,59,126,1,Humans can breathe water,j,,,
,,,,,,,,5748,2022-04-06_18h26.38.804,ImplicitInfinitySC-SLOWTASK,2021.2.3,Win32,60.08893162,,,,space,0.5248,,,,,,,,,,f,1,1.3175,,0,60,60,70,1,Grass needs nutrients,f,,,
,,,,,,,,5748,2022-04-06_18h26.38.804,ImplicitInfinitySC-SLOWTASK,2021.2.3,Win32,60.08893162,,,,space,0.4516,,,,,,,,,,f,1,1.0773,,0,61,61,94,1,Orange is a color,f,,,
,,,,,,,,5748,2022-04-06_18h26.38.804,ImplicitInfinitySC-SLOWTASK,2021.2.3,Win32,60.08893162,,,,space,0.4006,,,,,,,,,,j,1,1.2013,,0,62,62,81,1,Tables reproduce,j,,,
,,,,,,,,5748,2022-04-06_18h26.38.804,ImplicitInfinitySC-SLOWTASK,2021.2.3,Win32,60.08893162,,,,space,0.3855,,,,,,,,,,f,1,1.436,,0,63,63,107,1,A pencil is used to write,f,,,
,,,,,,,,5748,2022-04-06_18h26.38.804,ImplicitInfinitySC-SLOWTASK,2021.2.3,Win32,60.08893162,,,,space,0.3207,,,,,,,,,,f,1,1.7696,,0,64,64,55,1,Concrete is composed of matter,f,,,
,,,,,,,,5748,2022-04-06_18h26.38.804,ImplicitInfinitySC-SLOWTASK,2021.2.3,Win32,60.08893162,,,,space,0.2762,,,,,,,,,,j,1,2.1505,,0,65,65,32,1,Numbers are finite,j,,,
,,,,,,,,5748,2022-04-06_18h26.38.804,ImplicitInfinitySC-SLOWTASK,2021.2.3,Win32,60.08893162,,,,space,0.4022,,,,,,,,,,f,1,1.9339,,0,66,66,73,1,Bubbles can be put in a container,f,,,
,,,,,,,,5748,2022-04-06_18h26.38.804,ImplicitInfinitySC-SLOWTASK,2021.2.3,Win32,60.08893162,,,,space,0.5181,,,,,,,,,,j,1,2.0244,,0,67,67,122,1,The Earth is a star,j,,,
,,,,,,,,5748,2022-04-06_18h26.38.804,ImplicitInfinitySC-SLOWTASK,2021.2.3,Win32,60.08893162,,,,space,0.3314,,,,,,,,,,j,1,2.6964,,0,68,68,14,1,An inch cannot always be further divided,j,,,
,,,,,,,,5748,2022-04-06_18h26.38.804,ImplicitInfinitySC-SLOWTASK,2021.2.3,Win32,60.08893162,,,,space,0.6114,,,,,,,,,,f,0,3.0132,,0,69,69,66,1,Music has a molecular structure,j,,,
,,,,,,,,5748,2022-04-06_18h26.38.804,ImplicitInfinitySC-SLOWTASK,2021.2.3,Win32,60.08893162,,,,space,0.2839,,,,,,,,,,f,1,1.4176,,0,70,70,71,1,Oaks reproduce,f,,,
,,,,,,,,5748,2022-04-06_18h26.38.804,ImplicitInfinitySC-SLOWTASK,2021.2.3,Win32,60.08893162,,,,space,0.2661,,,,,,,,,,j,1,2.2193,,0,71,71,13,1,An inch can go on forever,j,,,
,,,,,,,,5748,2022-04-06_18h26.38.804,ImplicitInfinitySC-SLOWTASK,2021.2.3,Win32,60.08893162,,,,space,0.2747,,,,,,,,,,j,1,2.2866,,0,72,72,67,1,Gravity has a molecular structure,j,,,
,,,,,,,,5748,2022-04-06_18h26.38.804,ImplicitInfinitySC-SLOWTASK,2021.2.3,Win32,60.08893162,,,,space,0.3341,,,,,,,,,,f,1,2.0135,,0,73,73,25,1,Space is infinite,f,,,
,,,,,,,,5748,2022-04-06_18h26.38.804,ImplicitInfinitySC-SLOWTASK,2021.2.3,Win32,60.08893162,,,,space,0.3268,,,,,,,,,,f,1,1.1494,,0,74,74,72,1,Mushrooms reproduce,f,,,
,,,,,,,,5748,2022-04-06_18h26.38.804,ImplicitInfinitySC-SLOWTASK,2021.2.3,Win32,60.08893162,,,,space,0.3133,,,,,,,,,,j,1,1.5506,,0,75,75,58,1,Clocks are alive,j,,,
,,,,,,,,5748,2022-04-06_18h26.38.804,ImplicitInfinitySC-SLOWTASK,2021.2.3,Win32,60.08893162,,,,space,0.4354,,,,,,,,,,f,1,1.7799,,0,76,76,103,1,The United States is a country,f,,,
,,,,,,,,5748,2022-04-06_18h26.38.804,ImplicitInfinitySC-SLOWTASK,2021.2.3,Win32,60.08893162,,,,space,0.3435,,,,,,,,,,f,1,1.6183,,0,77,77,104,1,The United States has a president,f,,,
,,,,,,,,5748,2022-04-06_18h26.38.804,ImplicitInfinitySC-SLOWTASK,2021.2.3,Win32,60.08893162,,,,space,0.336,,,,,,,,,,j,1,1.3841,,0,78,78,113,1,Magenta is a shape,j,,,
,,,,,,,,5748,2022-04-06_18h26.38.804,ImplicitInfinitySC-SLOWTASK,2021.2.3,Win32,60.08893162,,,,space,0.3282,,,,,,,,,,f,1,2.0092,,0,79,79,54,1,Dumbells are composed of matter,f,,,
,,,,,,,,5748,2022-04-06_18h26.38.804,ImplicitInfinitySC-SLOWTASK,2021.2.3,Win32,60.08893162,,,,space,0.3355,,,,,,,,,,f,1,1.6423,,0,80,80,98,1,A clock is used to tell time,f,,,
,,,,,,,,5748,2022-04-06_18h26.38.804,ImplicitInfinitySC-SLOWTASK,2021.2.3,Win32,60.08893162,,,,,,,,,,,,,,,,,,,,,,,,,,,space,10.8569
