SlowInstrKey.keys,SlowInstrKey.rt,SlowInstrLoop.thisRepN,SlowInstrLoop.thisTrialN,SlowInstrLoop.thisN,SlowInstrLoop.thisIndex,SlowInstrLoop.ran,SlowInstructions,participant,date,expName,psychopyVersion,OS,frameRate,key_resp_5.keys,key_resp_5.corr,key_resp_5.rt,key_resp_4.keys,key_resp_4.rt,slowpracticeloop.thisRepN,slowpracticeloop.thisTrialN,slowpracticeloop.thisN,slowpracticeloop.thisIndex,slowpracticeloop.ran,practicetext,practicecorrect,key_resp_3.keys,key_resp_3.rt,SlowKey.keys,SlowKey.corr,SlowKey.rt,encouragekey.keys,SlowLoop.thisRepN,SlowLoop.thisTrialN,SlowLoop.thisN,SlowLoop.thisIndex,SlowLoop.ran,Statement,Correct,encouragekey.rt,endstudykey.keys,endstudykey.rt
space,7.6726,0,0,0,0,1,"You will be shown a total of 80 statements pertaining to mathematics, science, and social concepts. Your task is to determine whether each statement is true or false. Some statements will be difficult and some will be easier.  We do not expect you to know the correct answer for all 80 statements.  Press SPACE to Continue",6442,2022-04-06_19h24.27.250,ImplicitInfinitySC-SLOWTASK,2021.2.3,MacIntel,60.0024001,,,,,,,,,,,,,,,,,,,,,,,,,,,,
space,8.8534,0,1,1,1,1,"We urge you to try your best and take your time. Each statement will appear on your screen and you will have 10 seconds to decide if it is true or false. You will hear a beep at 6 seconds that will prompt you to respond within the next 4 seconds. If you fail to respond within this time, the trial will be counted as incorrect and the next statement will appear. Press SPACE to continue",6442,2022-04-06_19h24.27.250,ImplicitInfinitySC-SLOWTASK,2021.2.3,MacIntel,60.0024001,,,,,,,,,,,,,,,,,,,,,,,,,,,,
space,8.4741,0,2,2,2,1,"If the statement is true, you will press the “F” key on your keyboard with your left pointer finger; if the statement is false, you will press the “J” key on your keyboard with your right pointer finger. Press SPACE to continue",6442,2022-04-06_19h24.27.250,ImplicitInfinitySC-SLOWTASK,2021.2.3,MacIntel,60.0024001,,,,,,,,,,,,,,,,,,,,,,,,,,,,
space,1.3594,0,3,3,3,1,Take your time and go slowly! You have 10 seconds to answer! Press SPACE to continue. ,6442,2022-04-06_19h24.27.250,ImplicitInfinitySC-SLOWTASK,2021.2.3,MacIntel,60.0024001,,,,,,,,,,,,,,,,,,,,,,,,,,,,
,,,,,,,,6442,2022-04-06_19h24.27.250,ImplicitInfinitySC-SLOWTASK,2021.2.3,MacIntel,60.0024001,f,1,1.1474,space,0.8037,0,0,0,0,1,A circle is a shape,f,,,,,,,,,,,,,,,,
,,,,,,,,6442,2022-04-06_19h24.27.250,ImplicitInfinitySC-SLOWTASK,2021.2.3,MacIntel,60.0024001,f,1,1.1896,space,0.4061,0,1,1,3,1,A clock is used to tell time,f,,,,,,,,,,,,,,,,
,,,,,,,,6442,2022-04-06_19h24.27.250,ImplicitInfinitySC-SLOWTASK,2021.2.3,MacIntel,60.0024001,f,1,1.579,space,0.2783,0,2,2,1,1,Dinosaurs are extinct,f,,,,,,,,,,,,,,,,
,,,,,,,,6442,2022-04-06_19h24.27.250,ImplicitInfinitySC-SLOWTASK,2021.2.3,MacIntel,60.0024001,f,0,1.1547,space,0.3064,0,3,3,7,1,The Earth is a star,j,,,,,,,,,,,,,,,,
,,,,,,,,6442,2022-04-06_19h24.27.250,ImplicitInfinitySC-SLOWTASK,2021.2.3,MacIntel,60.0024001,j,1,0.9705,space,0.2691,0,4,4,8,1,Mississippi is a country,j,,,,,,,,,,,,,,,,
,,,,,,,,6442,2022-04-06_19h24.27.250,ImplicitInfinitySC-SLOWTASK,2021.2.3,MacIntel,60.0024001,f,0,1.7309,space,0.7543,0,5,5,6,1,Jupiter is the planet we live on,j,,,,,,,,,,,,,,,,
,,,,,,,,6442,2022-04-06_19h24.27.250,ImplicitInfinitySC-SLOWTASK,2021.2.3,MacIntel,60.0024001,f,1,1.8919,space,0.3034,0,6,6,4,1,Humans cannot breathe water,f,,,,,,,,,,,,,,,,
,,,,,,,,6442,2022-04-06_19h24.27.250,ImplicitInfinitySC-SLOWTASK,2021.2.3,MacIntel,60.0024001,j,1,1.0245,space,0.2869,0,7,7,9,1,Humans cannot eat food,j,,,,,,,,,,,,,,,,
,,,,,,,,6442,2022-04-06_19h24.27.250,ImplicitInfinitySC-SLOWTASK,2021.2.3,MacIntel,60.0024001,f,1,1.6067,space,0.2571,0,8,8,2,1,Magenta is a color,f,,,,,,,,,,,,,,,,
,,,,,,,,6442,2022-04-06_19h24.27.250,ImplicitInfinitySC-SLOWTASK,2021.2.3,MacIntel,60.0024001,j,1,0.9892,space,0.2563,0,9,9,5,1,A truck is an animal,j,,,,,,,,,,,,,,,,
,,,,,,,,6442,2022-04-06_19h24.27.250,ImplicitInfinitySC-SLOWTASK,2021.2.3,MacIntel,60.0024001,,,,space,0.3163,,,,,,,,space,6.3792,j,1,1.6155,,0,0,0,117,1,Dolphins cannot swim in the ocean,j,,,
,,,,,,,,6442,2022-04-06_19h24.27.250,ImplicitInfinitySC-SLOWTASK,2021.2.3,MacIntel,60.0024001,,,,space,1.0376,,,,,,,,,,f,0,1.574,,0,1,1,36,1,Numbers cannot go on forever,j,,,
,,,,,,,,6442,2022-04-06_19h24.27.250,ImplicitInfinitySC-SLOWTASK,2021.2.3,MacIntel,60.0024001,,,,space,0.3728,,,,,,,,,,f,1,2.3706,,0,2,2,55,1,Concrete is composed of matter,f,,,
,,,,,,,,6442,2022-04-06_19h24.27.250,ImplicitInfinitySC-SLOWTASK,2021.2.3,MacIntel,60.0024001,,,,space,0.4591,,,,,,,,,,j,1,0.8966,,0,3,3,119,1,A motorcycle is a person,j,,,
,,,,,,,,6442,2022-04-06_19h24.27.250,ImplicitInfinitySC-SLOWTASK,2021.2.3,MacIntel,60.0024001,,,,space,0.3094,,,,,,,,,,f,1,2.4339,,0,4,4,69,1,Bacteria are alive,f,,,
,,,,,,,,6442,2022-04-06_19h24.27.250,ImplicitInfinitySC-SLOWTASK,2021.2.3,MacIntel,60.0024001,,,,space,0.3554,,,,,,,,,,f,1,1.0785,,0,5,5,49,1,Pelicans are alive,f,,,
,,,,,,,,6442,2022-04-06_19h24.27.250,ImplicitInfinitySC-SLOWTASK,2021.2.3,MacIntel,60.0024001,,,,space,0.5911,,,,,,,,,,j,0,2.4755,,0,6,6,4,1,A minute cannot go on forever,f,,,
,,,,,,,,6442,2022-04-06_19h24.27.250,ImplicitInfinitySC-SLOWTASK,2021.2.3,MacIntel,60.0024001,,,,space,0.4239,,,,,,,,,,f,1,1.9907,,0,7,7,10,1,An inch has an end,f,,,
,,,,,,,,6442,2022-04-06_19h24.27.250,ImplicitInfinitySC-SLOWTASK,2021.2.3,MacIntel,60.0024001,,,,space,0.2993,,,,,,,,,,f,1,1.4874,,0,8,8,88,1,This sentence is written in English,f,,,
,,,,,,,,6442,2022-04-06_19h24.27.250,ImplicitInfinitySC-SLOWTASK,2021.2.3,MacIntel,60.0024001,,,,space,0.2533,,,,,,,,,,j,1,1.0713,,0,9,9,82,1,Stones reproduce,j,,,
,,,,,,,,6442,2022-04-06_19h24.27.250,ImplicitInfinitySC-SLOWTASK,2021.2.3,MacIntel,60.0024001,,,,space,0.2358,,,,,,,,,,f,1,0.6755,,0,10,10,95,1,Yellow is a color,f,,,
,,,,,,,,6442,2022-04-06_19h24.27.250,ImplicitInfinitySC-SLOWTASK,2021.2.3,MacIntel,60.0024001,,,,space,0.2575,,,,,,,,,,f,1,2.0915,,0,11,11,75,1,Frost is composed of matter,f,,,
,,,,,,,,6442,2022-04-06_19h24.27.250,ImplicitInfinitySC-SLOWTASK,2021.2.3,MacIntel,60.0024001,,,,space,0.1941,,,,,,,,,,j,1,1.449,,0,12,12,13,1,An inch can go on forever,j,,,
,,,,,,,,6442,2022-04-06_19h24.27.250,ImplicitInfinitySC-SLOWTASK,2021.2.3,MacIntel,60.0024001,,,,space,0.2829,,,,,,,,,,j,1,1.8924,,0,13,13,87,1,Dreams have a molecular structure,j,,,
,,,,,,,,6442,2022-04-06_19h24.27.250,ImplicitInfinitySC-SLOWTASK,2021.2.3,MacIntel,60.0024001,,,,space,0.219,,,,,,,,,,j,0,1.3624,,0,14,14,71,1,Oaks reproduce,f,,,
,,,,,,,,6442,2022-04-06_19h24.27.250,ImplicitInfinitySC-SLOWTASK,2021.2.3,MacIntel,60.0024001,,,,space,0.1858,,,,,,,,,,f,1,1.4781,,0,15,15,90,1,A triangle is not an animal,f,,,
,,,,,,,,6442,2022-04-06_19h24.27.250,ImplicitInfinitySC-SLOWTASK,2021.2.3,MacIntel,60.0024001,,,,space,0.2042,,,,,,,,,,j,1,1.425,,0,16,16,85,1,Thoughts are composed of matter,j,,,
,,,,,,,,6442,2022-04-06_19h24.27.250,ImplicitInfinitySC-SLOWTASK,2021.2.3,MacIntel,60.0024001,,,,space,0.2921,,,,,,,,,,f,1,2.9667,,0,17,17,23,1,Time can always be further divided,f,,,
,,,,,,,,6442,2022-04-06_19h24.27.250,ImplicitInfinitySC-SLOWTASK,2021.2.3,MacIntel,60.0024001,,,,space,0.2297,,,,,,,,,,j,1,1.0742,,0,18,18,113,1,Magenta is a shape,j,,,
,,,,,,,,6442,2022-04-06_19h24.27.250,ImplicitInfinitySC-SLOWTASK,2021.2.3,MacIntel,60.0024001,,,,space,0.2546,,,,,,,,,,f,1,1.9267,,0,19,19,98,1,A clock is used to tell time,f,,,
,,,,,,,,6442,2022-04-06_19h24.27.250,ImplicitInfinitySC-SLOWTASK,2021.2.3,MacIntel,60.0024001,,,,space,0.2507,,,,,,,,,,j,1,1.0212,,0,20,20,61,1,Sailboats reproduce,j,,,
,,,,,,,,6442,2022-04-06_19h24.27.250,ImplicitInfinitySC-SLOWTASK,2021.2.3,MacIntel,60.0024001,,,,space,0.3002,,,,,,,,,,f,1,1.4825,,0,21,21,54,1,Dumbells are composed of matter,f,,,
,,,,,,,,6442,2022-04-06_19h24.27.250,ImplicitInfinitySC-SLOWTASK,2021.2.3,MacIntel,60.0024001,,,,space,0.2929,,,,,,,,,,f,1,1.5895,,0,22,22,44,1,The number five cannot go on forever,f,,,
,,,,,,,,6442,2022-04-06_19h24.27.250,ImplicitInfinitySC-SLOWTASK,2021.2.3,MacIntel,60.0024001,,,,space,0.2612,,,,,,,,,,f,1,0.8755,,0,23,23,103,1,The United States is a country,f,,,
,,,,,,,,6442,2022-04-06_19h24.27.250,ImplicitInfinitySC-SLOWTASK,2021.2.3,MacIntel,60.0024001,,,,space,0.3527,,,,,,,,,,f,1,1.3987,,0,24,24,76,1,Pollen has a molecular structure,f,,,
,,,,,,,,6442,2022-04-06_19h24.27.250,ImplicitInfinitySC-SLOWTASK,2021.2.3,MacIntel,60.0024001,,,,space,0.2169,,,,,,,,,,j,1,1.7243,,0,25,25,22,1,Time cannot always be further divided,j,,,
,,,,,,,,6442,2022-04-06_19h24.27.250,ImplicitInfinitySC-SLOWTASK,2021.2.3,MacIntel,60.0024001,,,,space,0.2672,,,,,,,,,,f,1,0.8922,,0,26,26,102,1,The Earth is a planet,f,,,
,,,,,,,,6442,2022-04-06_19h24.27.250,ImplicitInfinitySC-SLOWTASK,2021.2.3,MacIntel,60.0024001,,,,space,0.204,,,,,,,,,,j,1,1.5142,,0,27,27,43,1,The number five is endless,j,,,
,,,,,,,,6442,2022-04-06_19h24.27.250,ImplicitInfinitySC-SLOWTASK,2021.2.3,MacIntel,60.0024001,,,,space,0.209,,,,,,,,,,j,0,2.3665,,0,28,28,40,1,The number five is finite,f,,,
,,,,,,,,6442,2022-04-06_19h24.27.250,ImplicitInfinitySC-SLOWTASK,2021.2.3,MacIntel,60.0024001,,,,space,0.1844,,,,,,,,,,j,1,3.1689,,0,29,29,126,1,Humans can breathe water,j,,,
,,,,,,,,6442,2022-04-06_19h24.27.250,ImplicitInfinitySC-SLOWTASK,2021.2.3,MacIntel,60.0024001,,,,space,0.3165,,,,,,,,,,f,1,2.3602,,0,30,30,53,1,Bricks can be put in a container,f,,,
,,,,,,,,6442,2022-04-06_19h24.27.250,ImplicitInfinitySC-SLOWTASK,2021.2.3,MacIntel,60.0024001,,,,space,0.2526,,,,,,,,,,j,1,2.0799,,0,31,31,16,1,Time is finite,j,,,
,,,,,,,,6442,2022-04-06_19h24.27.250,ImplicitInfinitySC-SLOWTASK,2021.2.3,MacIntel,60.0024001,,,,space,0.1698,,,,,,,,,,f,1,1.7063,,0,32,32,42,1,The number five has an end,f,,,
,,,,,,,,6442,2022-04-06_19h24.27.250,ImplicitInfinitySC-SLOWTASK,2021.2.3,MacIntel,60.0024001,,,,space,0.2703,,,,,,,,,,j,0,1.7133,,0,33,33,105,1,There are fifty states in the United States,f,,,
,,,,,,,,6442,2022-04-06_19h24.27.250,ImplicitInfinitySC-SLOWTASK,2021.2.3,MacIntel,60.0024001,,,,space,0.2433,,,,,,,,,,f,1,1.3106,,0,34,34,101,1,Jupiter is in our solar system,f,,,
,,,,,,,,6442,2022-04-06_19h24.27.250,ImplicitInfinitySC-SLOWTASK,2021.2.3,MacIntel,60.0024001,,,,space,0.2175,,,,,,,,,,j,1,1.4545,,0,35,35,63,1,Color can be put in a container,j,,,
,,,,,,,,6442,2022-04-06_19h24.27.250,ImplicitInfinitySC-SLOWTASK,2021.2.3,MacIntel,60.0024001,,,,space,0.2003,,,,,,,,,,f,1,2.1089,,0,36,36,47,1,The number five can always be further divided,f,,,
,,,,,,,,6442,2022-04-06_19h24.27.250,ImplicitInfinitySC-SLOWTASK,2021.2.3,MacIntel,60.0024001,,,,space,0.4681,,,,,,,,,,j,1,1.7133,,0,37,37,60,1,Robots need nutrients,j,,,
,,,,,,,,6442,2022-04-06_19h24.27.250,ImplicitInfinitySC-SLOWTASK,2021.2.3,MacIntel,60.0024001,,,,space,0.153,,,,,,,,,,j,1,0.7605,,0,38,38,79,1,Forks are alive,j,,,
,,,,,,,,6442,2022-04-06_19h24.27.250,ImplicitInfinitySC-SLOWTASK,2021.2.3,MacIntel,60.0024001,,,,space,0.1676,,,,,,,,,,j,0,1.7081,,0,39,39,21,1,Time can go on forever,f,,,
,,,,,,,,6442,2022-04-06_19h24.27.250,ImplicitInfinitySC-SLOWTASK,2021.2.3,MacIntel,60.0024001,,,,space,0.7334,,,,,,,,,,f,1,0.8094,space,0,40,40,104,1,The United States has a president,f,0.2533,,
,,,,,,,,6442,2022-04-06_19h24.27.250,ImplicitInfinitySC-SLOWTASK,2021.2.3,MacIntel,60.0024001,,,,space,0.2398,,,,,,,,,,f,1,0.8838,,0,41,41,92,1,Dinosaurs are extinct,f,,,
,,,,,,,,6442,2022-04-06_19h24.27.250,ImplicitInfinitySC-SLOWTASK,2021.2.3,MacIntel,60.0024001,,,,space,0.2505,,,,,,,,,,j,1,0.8932,,0,42,42,5,1,A minute can go on forever,j,,,
,,,,,,,,6442,2022-04-06_19h24.27.250,ImplicitInfinitySC-SLOWTASK,2021.2.3,MacIntel,60.0024001,,,,space,0.2829,,,,,,,,,,f,1,0.7252,,0,43,43,91,1,A circle is a shape,f,,,
,,,,,,,,6442,2022-04-06_19h24.27.250,ImplicitInfinitySC-SLOWTASK,2021.2.3,MacIntel,60.0024001,,,,space,0.235,,,,,,,,,,f,1,0.8992,,0,44,44,52,1,Frogs reproduce,f,,,
,,,,,,,,6442,2022-04-06_19h24.27.250,ImplicitInfinitySC-SLOWTASK,2021.2.3,MacIntel,60.0024001,,,,space,0.2923,,,,,,,,,,j,1,1.002,,0,45,45,83,1,Songs can be put in a container,j,,,
,,,,,,,,6442,2022-04-06_19h24.27.250,ImplicitInfinitySC-SLOWTASK,2021.2.3,MacIntel,60.0024001,,,,space,0.2049,,,,,,,,,,j,1,1.1551,,0,46,46,84,1,Silence is composed of matter,j,,,
,,,,,,,,6442,2022-04-06_19h24.27.250,ImplicitInfinitySC-SLOWTASK,2021.2.3,MacIntel,60.0024001,,,,space,0.2899,,,,,,,,,,f,0,0.8837,,0,47,47,122,1,The Earth is a star,j,,,
,,,,,,,,6442,2022-04-06_19h24.27.250,ImplicitInfinitySC-SLOWTASK,2021.2.3,MacIntel,60.0024001,,,,space,0.2563,,,,,,,,,,f,1,0.7059,,0,48,48,48,1,Crocodiles are alive,f,,,
,,,,,,,,6442,2022-04-06_19h24.27.250,ImplicitInfinitySC-SLOWTASK,2021.2.3,MacIntel,60.0024001,,,,space,0.9075,,,,,,,,,,f,0,0.6535,,0,49,49,112,1,Dinosaurs are not extinct,j,,,
,,,,,,,,6442,2022-04-06_19h24.27.250,ImplicitInfinitySC-SLOWTASK,2021.2.3,MacIntel,60.0024001,,,,space,0.2412,,,,,,,,,,f,1,0.7609,,0,50,50,68,1,Algae is alive,f,,,
,,,,,,,,6442,2022-04-06_19h24.27.250,ImplicitInfinitySC-SLOWTASK,2021.2.3,MacIntel,60.0024001,,,,space,0.2257,,,,,,,,,,j,1,0.912,,0,51,51,62,1,Helicopters reproduce,j,,,
,,,,,,,,6442,2022-04-06_19h24.27.250,ImplicitInfinitySC-SLOWTASK,2021.2.3,MacIntel,60.0024001,,,,space,0.1887,,,,,,,,,,j,0,0.9545,,0,52,52,19,1,Time is endless,f,,,
,,,,,,,,6442,2022-04-06_19h24.27.250,ImplicitInfinitySC-SLOWTASK,2021.2.3,MacIntel,60.0024001,,,,space,0.2199,,,,,,,,,,j,1,1.3612,,0,53,53,124,1,The president of the United States is Oprah,j,,,
,,,,,,,,6442,2022-04-06_19h24.27.250,ImplicitInfinitySC-SLOWTASK,2021.2.3,MacIntel,60.0024001,,,,space,0.2081,,,,,,,,,,f,1,0.9724,,0,54,54,27,1,Space is endless,f,,,
,,,,,,,,6442,2022-04-06_19h24.27.250,ImplicitInfinitySC-SLOWTASK,2021.2.3,MacIntel,60.0024001,,,,space,0.1675,,,,,,,,,,j,1,1.5077,,0,55,55,38,1,Numbers cannot always be further divided,j,,,
,,,,,,,,6442,2022-04-06_19h24.27.250,ImplicitInfinitySC-SLOWTASK,2021.2.3,MacIntel,60.0024001,,,,space,0.2001,,,,,,,,,,j,1,0.9543,,0,56,56,81,1,Tables reproduce,j,,,
,,,,,,,,6442,2022-04-06_19h24.27.250,ImplicitInfinitySC-SLOWTASK,2021.2.3,MacIntel,60.0024001,,,,space,0.2202,,,,,,,,,,f,0,1.829,,0,57,57,18,1,Time has an end,j,,,
,,,,,,,,6442,2022-04-06_19h24.27.250,ImplicitInfinitySC-SLOWTASK,2021.2.3,MacIntel,60.0024001,,,,space,0.25,,,,,,,,,,f,1,0.9392,,0,58,58,97,1,Dolphins can swim in the ocean,f,,,
,,,,,,,,6442,2022-04-06_19h24.27.250,ImplicitInfinitySC-SLOWTASK,2021.2.3,MacIntel,60.0024001,,,,space,0.2528,,,,,,,,,,f,1,0.9079,,0,59,59,107,1,A pencil is used to write,f,,,
,,,,,,,,6442,2022-04-06_19h24.27.250,ImplicitInfinitySC-SLOWTASK,2021.2.3,MacIntel,60.0024001,,,,space,0.2358,,,,,,,,,,f,1,1.124,,0,60,60,50,1,Turtles need nutrients,f,,,
,,,,,,,,6442,2022-04-06_19h24.27.250,ImplicitInfinitySC-SLOWTASK,2021.2.3,MacIntel,60.0024001,,,,space,0.1618,,,,,,,,,,f,1,0.7205,,0,61,61,89,1,A square is a shape,f,,,
,,,,,,,,6442,2022-04-06_19h24.27.250,ImplicitInfinitySC-SLOWTASK,2021.2.3,MacIntel,60.0024001,,,,space,0.1506,,,,,,,,,,j,1,1.8933,,0,62,62,20,1,Time cannot go on forever,j,,,
,,,,,,,,6442,2022-04-06_19h24.27.250,ImplicitInfinitySC-SLOWTASK,2021.2.3,MacIntel,60.0024001,,,,space,0.1449,,,,,,,,,,j,1,2.0057,,0,63,63,58,1,Clocks are alive,j,,,
,,,,,,,,6442,2022-04-06_19h24.27.250,ImplicitInfinitySC-SLOWTASK,2021.2.3,MacIntel,60.0024001,,,,space,0.0679,,,,,,,,,,f,1,1.3281,,0,64,64,0,1,A minute is finite,f,,,
,,,,,,,,6442,2022-04-06_19h24.27.250,ImplicitInfinitySC-SLOWTASK,2021.2.3,MacIntel,60.0024001,,,,space,0.1228,,,,,,,,,,j,1,2.1412,,0,65,65,59,1,Comets are alive,j,,,
,,,,,,,,6442,2022-04-06_19h24.27.250,ImplicitInfinitySC-SLOWTASK,2021.2.3,MacIntel,60.0024001,,,,space,0.1197,,,,,,,,,,j,1,1.7429,,0,66,66,64,1,Echoes are composed of matter,j,,,
,,,,,,,,6442,2022-04-06_19h24.27.250,ImplicitInfinitySC-SLOWTASK,2021.2.3,MacIntel,60.0024001,,,,space,0.0229,,,,,,,,,,f,1,1.4599,,0,67,67,12,1,An inch cannot go on forever,f,,,
,,,,,,,,6442,2022-04-06_19h24.27.250,ImplicitInfinitySC-SLOWTASK,2021.2.3,MacIntel,60.0024001,,,,space,0.5203,,,,,,,,,,j,0,1.7244,,0,68,68,37,1,Numbers can go on forever,f,,,
,,,,,,,,6442,2022-04-06_19h24.27.250,ImplicitInfinitySC-SLOWTASK,2021.2.3,MacIntel,60.0024001,,,,space,0.0895,,,,,,,,,,j,1,1.5414,,0,69,69,34,1,Numbers have an end,j,,,
,,,,,,,,6442,2022-04-06_19h24.27.250,ImplicitInfinitySC-SLOWTASK,2021.2.3,MacIntel,60.0024001,,,,space,0.1861,,,,,,,,,,f,1,2.1935,,0,70,70,56,1,Diamonds have a molecular structure,f,,,
,,,,,,,,6442,2022-04-06_19h24.27.250,ImplicitInfinitySC-SLOWTASK,2021.2.3,MacIntel,60.0024001,,,,space,0.3339,,,,,,,,,,j,1,0.9056,,0,71,71,109,1,A square is a color,j,,,
,,,,,,,,6442,2022-04-06_19h24.27.250,ImplicitInfinitySC-SLOWTASK,2021.2.3,MacIntel,60.0024001,,,,space,0.2837,,,,,,,,,,f,1,1.4771,,0,72,72,73,1,Bubbles can be put in a container,f,,,
,,,,,,,,6442,2022-04-06_19h24.27.250,ImplicitInfinitySC-SLOWTASK,2021.2.3,MacIntel,60.0024001,,,,space,0.2365,,,,,,,,,,j,1,1.295,,0,73,73,108,1,This sentence is written in Spanish,j,,,
,,,,,,,,6442,2022-04-06_19h24.27.250,ImplicitInfinitySC-SLOWTASK,2021.2.3,MacIntel,60.0024001,,,,space,0.1713,,,,,,,,,,j,1,1.5364,,0,74,74,32,1,Numbers are finite,j,,,
,,,,,,,,6442,2022-04-06_19h24.27.250,ImplicitInfinitySC-SLOWTASK,2021.2.3,MacIntel,60.0024001,,,,space,0.2045,,,,,,,,,,f,1,0.9793,,0,75,75,94,1,Orange is a color,f,,,
,,,,,,,,6442,2022-04-06_19h24.27.250,ImplicitInfinitySC-SLOWTASK,2021.2.3,MacIntel,60.0024001,,,,space,0.5841,,,,,,,,,,j,0,1.0461,,0,76,76,25,1,Space is infinite,f,,,
,,,,,,,,6442,2022-04-06_19h24.27.250,ImplicitInfinitySC-SLOWTASK,2021.2.3,MacIntel,60.0024001,,,,space,0.2504,,,,,,,,,,f,1,1.0763,,0,77,77,35,1,Numbers are endless,f,,,
,,,,,,,,6442,2022-04-06_19h24.27.250,ImplicitInfinitySC-SLOWTASK,2021.2.3,MacIntel,60.0024001,,,,space,0.2243,,,,,,,,,,j,1,2.1858,,0,78,78,14,1,An inch cannot always be further divided,j,,,
,,,,,,,,6442,2022-04-06_19h24.27.250,ImplicitInfinitySC-SLOWTASK,2021.2.3,MacIntel,60.0024001,,,,space,0.202,,,,,,,,,,f,1,2.1367,,0,79,79,15,1,An inch can be always further divided,f,,,
,,,,,,,,6442,2022-04-06_19h24.27.250,ImplicitInfinitySC-SLOWTASK,2021.2.3,MacIntel,60.0024001,,,,space,0.2012,,,,,,,,,,f,1,0.7215,,0,80,80,96,1,Fish can swim in the ocean,f,,,
,,,,,,,,6442,2022-04-06_19h24.27.250,ImplicitInfinitySC-SLOWTASK,2021.2.3,MacIntel,60.0024001,,,,,,,,,,,,,,,,,,,,,,,,,,,space,11.0353
