SlowInstrKey.keys,SlowInstrKey.rt,SlowInstrLoop.thisRepN,SlowInstrLoop.thisTrialN,SlowInstrLoop.thisN,SlowInstrLoop.thisIndex,SlowInstrLoop.ran,SlowInstructions,participant,date,expName,psychopyVersion,OS,frameRate,key_resp_5.keys,key_resp_5.corr,key_resp_5.rt,key_resp_4.keys,key_resp_4.rt,slowpracticeloop.thisRepN,slowpracticeloop.thisTrialN,slowpracticeloop.thisN,slowpracticeloop.thisIndex,slowpracticeloop.ran,practicetext,practicecorrect,key_resp_3.keys,key_resp_3.rt,SlowKey.keys,SlowKey.corr,SlowKey.rt,encouragekey.keys,SlowLoop.thisRepN,SlowLoop.thisTrialN,SlowLoop.thisN,SlowLoop.thisIndex,SlowLoop.ran,Statement,Correct,encouragekey.rt,endstudykey.keys,endstudykey.rt
space,6.4081,0,0,0,0,1,"You will be shown a total of 80 statements pertaining to mathematics, science, and social concepts. Your task is to determine whether each statement is true or false. Some statements will be difficult and some will be easier.  We do not expect you to know the correct answer for all 80 statements.  Press SPACE to Continue",6521,2022-04-06_18h05.53.041,ImplicitInfinitySC-SLOWTASK,2021.2.3,Win32,60.07449237,,,,,,,,,,,,,,,,,,,,,,,,,,,,
space,9.8043,0,1,1,1,1,"We urge you to try your best and take your time. Each statement will appear on your screen and you will have 10 seconds to decide if it is true or false. You will hear a beep at 6 seconds that will prompt you to respond within the next 4 seconds. If you fail to respond within this time, the trial will be counted as incorrect and the next statement will appear. Press SPACE to continue",6521,2022-04-06_18h05.53.041,ImplicitInfinitySC-SLOWTASK,2021.2.3,Win32,60.07449237,,,,,,,,,,,,,,,,,,,,,,,,,,,,
space,6.5263,0,2,2,2,1,"If the statement is true, you will press the “F” key on your keyboard with your left pointer finger; if the statement is false, you will press the “J” key on your keyboard with your right pointer finger. Press SPACE to continue",6521,2022-04-06_18h05.53.041,ImplicitInfinitySC-SLOWTASK,2021.2.3,Win32,60.07449237,,,,,,,,,,,,,,,,,,,,,,,,,,,,
space,1.8164,0,3,3,3,1,Take your time and go slowly! You have 10 seconds to answer! Press SPACE to continue. ,6521,2022-04-06_18h05.53.041,ImplicitInfinitySC-SLOWTASK,2021.2.3,Win32,60.07449237,,,,,,,,,,,,,,,,,,,,,,,,,,,,
,,,,,,,,6521,2022-04-06_18h05.53.041,ImplicitInfinitySC-SLOWTASK,2021.2.3,Win32,60.07449237,j,1,1.9764,space,0.9662,0,0,0,5,1,A truck is an animal,j,,,,,,,,,,,,,,,,
,,,,,,,,6521,2022-04-06_18h05.53.041,ImplicitInfinitySC-SLOWTASK,2021.2.3,Win32,60.07449237,j,1,1.6471,space,0.9277,0,1,1,7,1,The Earth is a star,j,,,,,,,,,,,,,,,,
,,,,,,,,6521,2022-04-06_18h05.53.041,ImplicitInfinitySC-SLOWTASK,2021.2.3,Win32,60.07449237,f,1,1.6319,space,1.1507,0,2,2,3,1,A clock is used to tell time,f,,,,,,,,,,,,,,,,
,,,,,,,,6521,2022-04-06_18h05.53.041,ImplicitInfinitySC-SLOWTASK,2021.2.3,Win32,60.07449237,j,1,1.1865,space,0.883,0,3,3,8,1,Mississippi is a country,j,,,,,,,,,,,,,,,,
,,,,,,,,6521,2022-04-06_18h05.53.041,ImplicitInfinitySC-SLOWTASK,2021.2.3,Win32,60.07449237,f,1,1.3466,space,0.683,0,4,4,2,1,Magenta is a color,f,,,,,,,,,,,,,,,,
,,,,,,,,6521,2022-04-06_18h05.53.041,ImplicitInfinitySC-SLOWTASK,2021.2.3,Win32,60.07449237,f,1,2.3797,space,0.6333,0,5,5,4,1,Humans cannot breathe water,f,,,,,,,,,,,,,,,,
,,,,,,,,6521,2022-04-06_18h05.53.041,ImplicitInfinitySC-SLOWTASK,2021.2.3,Win32,60.07449237,j,1,1.7461,space,0.5354,0,6,6,6,1,Jupiter is the planet we live on,j,,,,,,,,,,,,,,,,
,,,,,,,,6521,2022-04-06_18h05.53.041,ImplicitInfinitySC-SLOWTASK,2021.2.3,Win32,60.07449237,f,1,1.7481,space,0.5844,0,7,7,1,1,Dinosaurs are extinct,f,,,,,,,,,,,,,,,,
,,,,,,,,6521,2022-04-06_18h05.53.041,ImplicitInfinitySC-SLOWTASK,2021.2.3,Win32,60.07449237,f,1,1.2476,space,0.5333,0,8,8,0,1,A circle is a shape,f,,,,,,,,,,,,,,,,
,,,,,,,,6521,2022-04-06_18h05.53.041,ImplicitInfinitySC-SLOWTASK,2021.2.3,Win32,60.07449237,j,1,1.748,space,0.4671,0,9,9,9,1,Humans cannot eat food,j,,,,,,,,,,,,,,,,
,,,,,,,,6521,2022-04-06_18h05.53.041,ImplicitInfinitySC-SLOWTASK,2021.2.3,Win32,60.07449237,,,,space,0.5776,,,,,,,,space,2.4425,f,1,1.2765,,0,0,0,89,1,A square is a shape,f,,,
,,,,,,,,6521,2022-04-06_18h05.53.041,ImplicitInfinitySC-SLOWTASK,2021.2.3,Win32,60.07449237,,,,space,0.6502,,,,,,,,,,j,1,2.5616,,0,1,1,18,1,Time has an end,j,,,
,,,,,,,,6521,2022-04-06_18h05.53.041,ImplicitInfinitySC-SLOWTASK,2021.2.3,Win32,60.07449237,,,,space,0.6001,,,,,,,,,,f,1,1.6701,,0,2,2,90,1,A triangle is not an animal,f,,,
,,,,,,,,6521,2022-04-06_18h05.53.041,ImplicitInfinitySC-SLOWTASK,2021.2.3,Win32,60.07449237,,,,space,0.8829,,,,,,,,,,f,0,2.8619,,0,3,3,65,1,Shadows are composed of matter,j,,,
,,,,,,,,6521,2022-04-06_18h05.53.041,ImplicitInfinitySC-SLOWTASK,2021.2.3,Win32,60.07449237,,,,space,0.6492,,,,,,,,,,f,1,2.1984,,0,4,4,2,1,A minute has an end,f,,,
,,,,,,,,6521,2022-04-06_18h05.53.041,ImplicitInfinitySC-SLOWTASK,2021.2.3,Win32,60.07449237,,,,space,0.5773,,,,,,,,,,f,1,2.2309,,0,5,5,4,1,A minute cannot go on forever,f,,,
,,,,,,,,6521,2022-04-06_18h05.53.041,ImplicitInfinitySC-SLOWTASK,2021.2.3,Win32,60.07449237,,,,space,0.5191,,,,,,,,,,f,1,1.4703,,0,6,6,50,1,Turtles need nutrients,f,,,
,,,,,,,,6521,2022-04-06_18h05.53.041,ImplicitInfinitySC-SLOWTASK,2021.2.3,Win32,60.07449237,,,,space,0.5334,,,,,,,,,,j,1,1.183,,0,7,7,126,1,Humans can breathe water,j,,,
,,,,,,,,6521,2022-04-06_18h05.53.041,ImplicitInfinitySC-SLOWTASK,2021.2.3,Win32,60.07449237,,,,space,0.3999,,,,,,,,,,j,1,1.2329,,0,8,8,121,1,Jupiter is the planet we live on,j,,,
,,,,,,,,6521,2022-04-06_18h05.53.041,ImplicitInfinitySC-SLOWTASK,2021.2.3,Win32,60.07449237,,,,space,0.3692,,,,,,,,,,f,1,0.817,,0,9,9,93,1,Magenta is a color,f,,,
,,,,,,,,6521,2022-04-06_18h05.53.041,ImplicitInfinitySC-SLOWTASK,2021.2.3,Win32,60.07449237,,,,space,0.3668,,,,,,,,,,j,1,0.9947,,0,10,10,78,1,Hammers are alive,j,,,
,,,,,,,,6521,2022-04-06_18h05.53.041,ImplicitInfinitySC-SLOWTASK,2021.2.3,Win32,60.07449237,,,,space,0.3507,,,,,,,,,,j,1,0.9986,,0,11,11,110,1,A triangle is an animal,j,,,
,,,,,,,,6521,2022-04-06_18h05.53.041,ImplicitInfinitySC-SLOWTASK,2021.2.3,Win32,60.07449237,,,,space,0.3614,,,,,,,,,,f,1,1.2349,,0,12,12,25,1,Space is infinite,f,,,
,,,,,,,,6521,2022-04-06_18h05.53.041,ImplicitInfinitySC-SLOWTASK,2021.2.3,Win32,60.07449237,,,,space,0.3345,,,,,,,,,,j,1,1.249,,0,13,13,124,1,The president of the United States is Oprah,j,,,
,,,,,,,,6521,2022-04-06_18h05.53.041,ImplicitInfinitySC-SLOWTASK,2021.2.3,Win32,60.07449237,,,,space,0.3004,,,,,,,,,,j,1,1.8599,,0,14,14,80,1,Mittens need nutrients,j,,,
,,,,,,,,6521,2022-04-06_18h05.53.041,ImplicitInfinitySC-SLOWTASK,2021.2.3,Win32,60.07449237,,,,space,0.3172,,,,,,,,,,f,1,1.183,,0,15,15,98,1,A clock is used to tell time,f,,,
,,,,,,,,6521,2022-04-06_18h05.53.041,ImplicitInfinitySC-SLOWTASK,2021.2.3,Win32,60.07449237,,,,space,0.3839,,,,,,,,,,f,1,2.3298,,0,16,16,40,1,The number five is finite,f,,,
,,,,,,,,6521,2022-04-06_18h05.53.041,ImplicitInfinitySC-SLOWTASK,2021.2.3,Win32,60.07449237,,,,space,0.2842,,,,,,,,,,f,1,1.7315,,0,17,17,57,1,Rocks have a molecular structure,f,,,
,,,,,,,,6521,2022-04-06_18h05.53.041,ImplicitInfinitySC-SLOWTASK,2021.2.3,Win32,60.07449237,,,,space,0.3496,,,,,,,,,,f,1,1.1655,,0,18,18,51,1,Tigers reproduce,f,,,
,,,,,,,,6521,2022-04-06_18h05.53.041,ImplicitInfinitySC-SLOWTASK,2021.2.3,Win32,60.07449237,,,,space,0.4172,,,,,,,,,,f,0,2.3474,,0,19,19,32,1,Numbers are finite,j,,,
,,,,,,,,6521,2022-04-06_18h05.53.041,ImplicitInfinitySC-SLOWTASK,2021.2.3,Win32,60.07449237,,,,space,0.3508,,,,,,,,,,j,1,2.1844,,0,20,20,1,1,A minute is infinite,j,,,
,,,,,,,,6521,2022-04-06_18h05.53.041,ImplicitInfinitySC-SLOWTASK,2021.2.3,Win32,60.07449237,,,,space,0.4519,,,,,,,,,,f,1,2.2981,,0,21,21,72,1,Mushrooms reproduce,f,,,
,,,,,,,,6521,2022-04-06_18h05.53.041,ImplicitInfinitySC-SLOWTASK,2021.2.3,Win32,60.07449237,,,,space,0.3831,,,,,,,,,,j,1,1.3972,,0,22,22,5,1,A minute can go on forever,j,,,
,,,,,,,,6521,2022-04-06_18h05.53.041,ImplicitInfinitySC-SLOWTASK,2021.2.3,Win32,60.07449237,,,,space,0.4511,,,,,,,,,,j,1,1.8301,,0,23,23,84,1,Silence is composed of matter,j,,,
,,,,,,,,6521,2022-04-06_18h05.53.041,ImplicitInfinitySC-SLOWTASK,2021.2.3,Win32,60.07449237,,,,space,0.4003,,,,,,,,,,j,1,1.8135,,0,24,24,87,1,Dreams have a molecular structure,j,,,
,,,,,,,,6521,2022-04-06_18h05.53.041,ImplicitInfinitySC-SLOWTASK,2021.2.3,Win32,60.07449237,,,,space,0.3473,,,,,,,,,,f,1,1.3665,,0,25,25,94,1,Orange is a color,f,,,
,,,,,,,,6521,2022-04-06_18h05.53.041,ImplicitInfinitySC-SLOWTASK,2021.2.3,Win32,60.07449237,,,,space,0.2544,,,,,,,,,,f,1,1.0188,,0,26,26,52,1,Frogs reproduce,f,,,
,,,,,,,,6521,2022-04-06_18h05.53.041,ImplicitInfinitySC-SLOWTASK,2021.2.3,Win32,60.07449237,,,,space,0.3499,,,,,,,,,,j,1,3.014,,0,27,27,30,1,Space cannot always be further divided,j,,,
,,,,,,,,6521,2022-04-06_18h05.53.041,ImplicitInfinitySC-SLOWTASK,2021.2.3,Win32,60.07449237,,,,space,0.4001,,,,,,,,,,j,1,1.2196,,0,28,28,59,1,Comets are alive,j,,,
,,,,,,,,6521,2022-04-06_18h05.53.041,ImplicitInfinitySC-SLOWTASK,2021.2.3,Win32,60.07449237,,,,space,0.3697,,,,,,,,,,f,1,1.8658,,0,29,29,23,1,Time can always be further divided,f,,,
,,,,,,,,6521,2022-04-06_18h05.53.041,ImplicitInfinitySC-SLOWTASK,2021.2.3,Win32,60.07449237,,,,space,0.3343,,,,,,,,,,j,1,1.0017,,0,30,30,115,1,Yellow is an animal,j,,,
,,,,,,,,6521,2022-04-06_18h05.53.041,ImplicitInfinitySC-SLOWTASK,2021.2.3,Win32,60.07449237,,,,space,0.3217,,,,,,,,,,j,1,1.8153,,0,31,31,20,1,Time cannot go on forever,j,,,
,,,,,,,,6521,2022-04-06_18h05.53.041,ImplicitInfinitySC-SLOWTASK,2021.2.3,Win32,60.07449237,,,,space,0.3862,,,,,,,,,,f,1,1.8833,,0,32,32,37,1,Numbers can go on forever,f,,,
,,,,,,,,6521,2022-04-06_18h05.53.041,ImplicitInfinitySC-SLOWTASK,2021.2.3,Win32,60.07449237,,,,space,0.3831,,,,,,,,,,f,1,2.3115,,0,33,33,88,1,This sentence is written in English,f,,,
,,,,,,,,6521,2022-04-06_18h05.53.041,ImplicitInfinitySC-SLOWTASK,2021.2.3,Win32,60.07449237,,,,space,0.3516,,,,,,,,,,j,1,1.2154,,0,34,34,58,1,Clocks are alive,j,,,
,,,,,,,,6521,2022-04-06_18h05.53.041,ImplicitInfinitySC-SLOWTASK,2021.2.3,Win32,60.07449237,,,,space,0.3991,,,,,,,,,,f,1,1.0161,,0,35,35,68,1,Algae is alive,f,,,
,,,,,,,,6521,2022-04-06_18h05.53.041,ImplicitInfinitySC-SLOWTASK,2021.2.3,Win32,60.07449237,,,,space,0.3339,,,,,,,,,,j,1,1.0189,,0,36,36,79,1,Forks are alive,j,,,
,,,,,,,,6521,2022-04-06_18h05.53.041,ImplicitInfinitySC-SLOWTASK,2021.2.3,Win32,60.07449237,,,,space,0.2538,,,,,,,,,,f,1,1.2648,,0,37,37,105,1,There are fifty states in the United States,f,,,
,,,,,,,,6521,2022-04-06_18h05.53.041,ImplicitInfinitySC-SLOWTASK,2021.2.3,Win32,60.07449237,,,,space,0.2672,,,,,,,,,,j,1,1.299,,0,38,38,64,1,Echoes are composed of matter,j,,,
,,,,,,,,6521,2022-04-06_18h05.53.041,ImplicitInfinitySC-SLOWTASK,2021.2.3,Win32,60.07449237,,,,space,0.217,,,,,,,,,,f,1,1.0776,,0,39,39,107,1,A pencil is used to write,f,,,
,,,,,,,,6521,2022-04-06_18h05.53.041,ImplicitInfinitySC-SLOWTASK,2021.2.3,Win32,60.07449237,,,,space,0.848,,,,,,,,,,j,1,1.1059,space,0,40,40,62,1,Helicopters reproduce,j,0.4491,,
,,,,,,,,6521,2022-04-06_18h05.53.041,ImplicitInfinitySC-SLOWTASK,2021.2.3,Win32,60.07449237,,,,space,0.4343,,,,,,,,,,f,1,0.9691,,0,41,41,49,1,Pelicans are alive,f,,,
,,,,,,,,6521,2022-04-06_18h05.53.041,ImplicitInfinitySC-SLOWTASK,2021.2.3,Win32,60.07449237,,,,space,0.3679,,,,,,,,,,f,1,1.0778,,0,42,42,71,1,Oaks reproduce,f,,,
,,,,,,,,6521,2022-04-06_18h05.53.041,ImplicitInfinitySC-SLOWTASK,2021.2.3,Win32,60.07449237,,,,space,0.3009,,,,,,,,,,f,1,2.4476,,0,43,43,44,1,The number five cannot go on forever,f,,,
,,,,,,,,6521,2022-04-06_18h05.53.041,ImplicitInfinitySC-SLOWTASK,2021.2.3,Win32,60.07449237,,,,space,0.2848,,,,,,,,,,f,1,1.4308,,0,44,44,91,1,A circle is a shape,f,,,
,,,,,,,,6521,2022-04-06_18h05.53.041,ImplicitInfinitySC-SLOWTASK,2021.2.3,Win32,60.07449237,,,,space,0.2506,,,,,,,,,,f,1,1.4604,,0,45,45,0,1,A minute is finite,f,,,
,,,,,,,,6521,2022-04-06_18h05.53.041,ImplicitInfinitySC-SLOWTASK,2021.2.3,Win32,60.07449237,,,,space,0.2848,,,,,,,,,,j,1,1.3041,,0,46,46,28,1,Space cannot go on forever,j,,,
,,,,,,,,6521,2022-04-06_18h05.53.041,ImplicitInfinitySC-SLOWTASK,2021.2.3,Win32,60.07449237,,,,space,0.324,,,,,,,,,,f,1,1.6821,,0,47,47,10,1,An inch has an end,f,,,
,,,,,,,,6521,2022-04-06_18h05.53.041,ImplicitInfinitySC-SLOWTASK,2021.2.3,Win32,60.07449237,,,,space,0.2663,,,,,,,,,,f,1,0.9497,,0,48,48,95,1,Yellow is a color,f,,,
,,,,,,,,6521,2022-04-06_18h05.53.041,ImplicitInfinitySC-SLOWTASK,2021.2.3,Win32,60.07449237,,,,space,0.2659,,,,,,,,,,j,1,1.7989,,0,49,49,36,1,Numbers cannot go on forever,j,,,
,,,,,,,,6521,2022-04-06_18h05.53.041,ImplicitInfinitySC-SLOWTASK,2021.2.3,Win32,60.07449237,,,,space,0.3277,,,,,,,,,,j,1,1.0816,,0,50,50,111,1,A circle is a flavor,j,,,
,,,,,,,,6521,2022-04-06_18h05.53.041,ImplicitInfinitySC-SLOWTASK,2021.2.3,Win32,60.07449237,,,,space,0.3004,,,,,,,,,,j,1,2.5959,,0,51,51,38,1,Numbers cannot always be further divided,j,,,
,,,,,,,,6521,2022-04-06_18h05.53.041,ImplicitInfinitySC-SLOWTASK,2021.2.3,Win32,60.07449237,,,,space,0.2688,,,,,,,,,,f,1,1.5816,,0,52,52,54,1,Dumbells are composed of matter,f,,,
,,,,,,,,6521,2022-04-06_18h05.53.041,ImplicitInfinitySC-SLOWTASK,2021.2.3,Win32,60.07449237,,,,space,0.3665,,,,,,,,,,j,1,1.0829,,0,53,53,82,1,Stones reproduce,j,,,
,,,,,,,,6521,2022-04-06_18h05.53.041,ImplicitInfinitySC-SLOWTASK,2021.2.3,Win32,60.07449237,,,,space,0.2831,,,,,,,,,,f,1,1.0655,,0,54,54,69,1,Bacteria are alive,f,,,
,,,,,,,,6521,2022-04-06_18h05.53.041,ImplicitInfinitySC-SLOWTASK,2021.2.3,Win32,60.07449237,,,,space,0.3662,,,,,,,,,,j,1,1.9478,,0,55,55,67,1,Gravity has a molecular structure,j,,,
,,,,,,,,6521,2022-04-06_18h05.53.041,ImplicitInfinitySC-SLOWTASK,2021.2.3,Win32,60.07449237,,,,space,0.284,,,,,,,,,,j,1,1.3829,,0,56,56,81,1,Tables reproduce,j,,,
,,,,,,,,6521,2022-04-06_18h05.53.041,ImplicitInfinitySC-SLOWTASK,2021.2.3,Win32,60.07449237,,,,space,0.4028,,,,,,,,,,f,1,1.7652,,0,57,57,73,1,Bubbles can be put in a container,f,,,
,,,,,,,,6521,2022-04-06_18h05.53.041,ImplicitInfinitySC-SLOWTASK,2021.2.3,Win32,60.07449237,,,,space,0.2672,,,,,,,,,,f,1,2.0813,,0,58,58,7,1,A minute can always be further divided,f,,,
,,,,,,,,6521,2022-04-06_18h05.53.041,ImplicitInfinitySC-SLOWTASK,2021.2.3,Win32,60.07449237,,,,space,0.283,,,,,,,,,,f,1,1.5646,,0,59,59,17,1,Time is infinite,f,,,
,,,,,,,,6521,2022-04-06_18h05.53.041,ImplicitInfinitySC-SLOWTASK,2021.2.3,Win32,60.07449237,,,,space,0.4336,,,,,,,,,,f,0,2.0481,,0,60,60,86,1,Words have a molecular structure,j,,,
,,,,,,,,6521,2022-04-06_18h05.53.041,ImplicitInfinitySC-SLOWTASK,2021.2.3,Win32,60.07449237,,,,space,0.2849,,,,,,,,,,f,1,1.7149,,0,61,61,47,1,The number five can always be further divided,f,,,
,,,,,,,,6521,2022-04-06_18h05.53.041,ImplicitInfinitySC-SLOWTASK,2021.2.3,Win32,60.07449237,,,,space,0.3687,,,,,,,,,,j,1,1.3176,,0,62,62,13,1,An inch can go on forever,j,,,
,,,,,,,,6521,2022-04-06_18h05.53.041,ImplicitInfinitySC-SLOWTASK,2021.2.3,Win32,60.07449237,,,,space,0.2855,,,,,,,,,,f,1,1.1153,,0,63,63,104,1,The United States has a president,f,,,
,,,,,,,,6521,2022-04-06_18h05.53.041,ImplicitInfinitySC-SLOWTASK,2021.2.3,Win32,60.07449237,,,,space,0.3334,,,,,,,,,,j,1,1.2837,,0,64,64,112,1,Dinosaurs are not extinct,j,,,
,,,,,,,,6521,2022-04-06_18h05.53.041,ImplicitInfinitySC-SLOWTASK,2021.2.3,Win32,60.07449237,,,,space,0.3335,,,,,,,,,,f,1,1.817,,0,65,65,75,1,Frost is composed of matter,f,,,
,,,,,,,,6521,2022-04-06_18h05.53.041,ImplicitInfinitySC-SLOWTASK,2021.2.3,Win32,60.07449237,,,,space,0.4319,,,,,,,,,,j,1,1.4053,,0,66,66,83,1,Songs can be put in a container,j,,,
,,,,,,,,6521,2022-04-06_18h05.53.041,ImplicitInfinitySC-SLOWTASK,2021.2.3,Win32,60.07449237,,,,space,0.3515,,,,,,,,,,f,1,1.2826,,0,67,67,103,1,The United States is a country,f,,,
,,,,,,,,6521,2022-04-06_18h05.53.041,ImplicitInfinitySC-SLOWTASK,2021.2.3,Win32,60.07449237,,,,space,0.3348,,,,,,,,,,j,1,1.0982,,0,68,68,61,1,Sailboats reproduce,j,,,
,,,,,,,,6521,2022-04-06_18h05.53.041,ImplicitInfinitySC-SLOWTASK,2021.2.3,Win32,60.07449237,,,,space,0.2533,,,,,,,,,,j,1,1.1666,,0,69,69,122,1,The Earth is a star,j,,,
,,,,,,,,6521,2022-04-06_18h05.53.041,ImplicitInfinitySC-SLOWTASK,2021.2.3,Win32,60.07449237,,,,space,0.3015,,,,,,,,,,f,1,1.2812,,0,70,70,97,1,Dolphins can swim in the ocean,f,,,
,,,,,,,,6521,2022-04-06_18h05.53.041,ImplicitInfinitySC-SLOWTASK,2021.2.3,Win32,60.07449237,,,,space,0.3168,,,,,,,,,,j,1,1.6317,,0,71,71,41,1,The number five is infinite,j,,,
,,,,,,,,6521,2022-04-06_18h05.53.041,ImplicitInfinitySC-SLOWTASK,2021.2.3,Win32,60.07449237,,,,space,0.2386,,,,,,,,,,f,1,1.8656,,0,72,72,56,1,Diamonds have a molecular structure,f,,,
,,,,,,,,6521,2022-04-06_18h05.53.041,ImplicitInfinitySC-SLOWTASK,2021.2.3,Win32,60.07449237,,,,space,0.318,,,,,,,,,,j,1,1.3322,,0,73,73,11,1,An inch is endless,j,,,
,,,,,,,,6521,2022-04-06_18h05.53.041,ImplicitInfinitySC-SLOWTASK,2021.2.3,Win32,60.07449237,,,,space,0.3656,,,,,,,,,,f,1,1.2498,,0,74,74,101,1,Jupiter is in our solar system,f,,,
,,,,,,,,6521,2022-04-06_18h05.53.041,ImplicitInfinitySC-SLOWTASK,2021.2.3,Win32,60.07449237,,,,space,0.4185,,,,,,,,,,j,1,1.6999,,0,75,75,9,1,An inch is infinite,j,,,
,,,,,,,,6521,2022-04-06_18h05.53.041,ImplicitInfinitySC-SLOWTASK,2021.2.3,Win32,60.07449237,,,,space,0.2161,,,,,,,,,,f,1,1.4328,,0,76,76,35,1,Numbers are endless,f,,,
,,,,,,,,6521,2022-04-06_18h05.53.041,ImplicitInfinitySC-SLOWTASK,2021.2.3,Win32,60.07449237,,,,space,0.2835,,,,,,,,,,f,1,1.8324,,0,77,77,12,1,An inch cannot go on forever,f,,,
,,,,,,,,6521,2022-04-06_18h05.53.041,ImplicitInfinitySC-SLOWTASK,2021.2.3,Win32,60.07449237,,,,space,0.2463,,,,,,,,,,f,1,0.9497,,0,78,78,70,1,Grass needs nutrients,f,,,
,,,,,,,,6521,2022-04-06_18h05.53.041,ImplicitInfinitySC-SLOWTASK,2021.2.3,Win32,60.07449237,,,,space,0.3674,,,,,,,,,,f,1,1.1167,,0,79,79,27,1,Space is endless,f,,,
,,,,,,,,6521,2022-04-06_18h05.53.041,ImplicitInfinitySC-SLOWTASK,2021.2.3,Win32,60.07449237,,,,space,0.3347,,,,,,,,,,j,0,1.8434,,0,80,80,53,1,Bricks can be put in a container,f,,,
,,,,,,,,6521,2022-04-06_18h05.53.041,ImplicitInfinitySC-SLOWTASK,2021.2.3,Win32,60.07449237,,,,,,,,,,,,,,,,,,,,,,,,,,,space,18.8963
