SlowInstrKey.keys,SlowInstrKey.rt,SlowInstrLoop.thisRepN,SlowInstrLoop.thisTrialN,SlowInstrLoop.thisN,SlowInstrLoop.thisIndex,SlowInstrLoop.ran,SlowInstructions,participant,date,expName,psychopyVersion,OS,frameRate,key_resp_5.keys,key_resp_5.corr,key_resp_5.rt,key_resp_4.keys,key_resp_4.rt,slowpracticeloop.thisRepN,slowpracticeloop.thisTrialN,slowpracticeloop.thisN,slowpracticeloop.thisIndex,slowpracticeloop.ran,practicetext,practicecorrect,key_resp_3.keys,key_resp_3.rt,SlowKey.keys,SlowKey.corr,SlowKey.rt,encouragekey.keys,SlowLoop.thisRepN,SlowLoop.thisTrialN,SlowLoop.thisN,SlowLoop.thisIndex,SlowLoop.ran,Statement,Correct,encouragekey.rt,endstudykey.keys,endstudykey.rt
space,10.037,0,0,0,0,1,"You will be shown a total of 80 statements pertaining to mathematics, science, and social concepts. Your task is to determine whether each statement is true or false. Some statements will be difficult and some will be easier.  We do not expect you to know the correct answer for all 80 statements.  Press SPACE to Continue",6598,2022-04-06_16h06.45.034,ImplicitInfinitySC-SLOWTASK,2021.2.3,Win32,60.0240096,,,,,,,,,,,,,,,,,,,,,,,,,,,,
space,11.235,0,1,1,1,1,"We urge you to try your best and take your time. Each statement will appear on your screen and you will have 10 seconds to decide if it is true or false. You will hear a beep at 6 seconds that will prompt you to respond within the next 4 seconds. If you fail to respond within this time, the trial will be counted as incorrect and the next statement will appear. Press SPACE to continue",6598,2022-04-06_16h06.45.034,ImplicitInfinitySC-SLOWTASK,2021.2.3,Win32,60.0240096,,,,,,,,,,,,,,,,,,,,,,,,,,,,
space,20.811,0,2,2,2,1,"If the statement is true, you will press the “F” key on your keyboard with your left pointer finger; if the statement is false, you will press the “J” key on your keyboard with your right pointer finger. Press SPACE to continue",6598,2022-04-06_16h06.45.034,ImplicitInfinitySC-SLOWTASK,2021.2.3,Win32,60.0240096,,,,,,,,,,,,,,,,,,,,,,,,,,,,
space,1.418,0,3,3,3,1,Take your time and go slowly! You have 10 seconds to answer! Press SPACE to continue. ,6598,2022-04-06_16h06.45.034,ImplicitInfinitySC-SLOWTASK,2021.2.3,Win32,60.0240096,,,,,,,,,,,,,,,,,,,,,,,,,,,,
,,,,,,,,6598,2022-04-06_16h06.45.034,ImplicitInfinitySC-SLOWTASK,2021.2.3,Win32,60.0240096,f,1,2.108,space,1.397,0,0,0,4,1,Humans cannot breathe water,f,,,,,,,,,,,,,,,,
,,,,,,,,6598,2022-04-06_16h06.45.034,ImplicitInfinitySC-SLOWTASK,2021.2.3,Win32,60.0240096,f,1,1.948,space,0.92,0,1,1,3,1,A clock is used to tell time,f,,,,,,,,,,,,,,,,
,,,,,,,,6598,2022-04-06_16h06.45.034,ImplicitInfinitySC-SLOWTASK,2021.2.3,Win32,60.0240096,j,1,1.608,space,0.969,0,2,2,8,1,Mississippi is a country,j,,,,,,,,,,,,,,,,
,,,,,,,,6598,2022-04-06_16h06.45.034,ImplicitInfinitySC-SLOWTASK,2021.2.3,Win32,60.0240096,f,1,1.6,space,0.868,0,3,3,1,1,Dinosaurs are extinct,f,,,,,,,,,,,,,,,,
,,,,,,,,6598,2022-04-06_16h06.45.034,ImplicitInfinitySC-SLOWTASK,2021.2.3,Win32,60.0240096,j,1,1.549,space,0.885,0,4,4,7,1,The Earth is a star,j,,,,,,,,,,,,,,,,
,,,,,,,,6598,2022-04-06_16h06.45.034,ImplicitInfinitySC-SLOWTASK,2021.2.3,Win32,60.0240096,f,1,1.748,space,0.835,0,5,5,0,1,A circle is a shape,f,,,,,,,,,,,,,,,,
,,,,,,,,6598,2022-04-06_16h06.45.034,ImplicitInfinitySC-SLOWTASK,2021.2.3,Win32,60.0240096,j,1,1.933,space,0.935,0,6,6,6,1,Jupiter is the planet we live on,j,,,,,,,,,,,,,,,,
,,,,,,,,6598,2022-04-06_16h06.45.034,ImplicitInfinitySC-SLOWTASK,2021.2.3,Win32,60.0240096,j,1,1.699,space,0.926,0,7,7,9,1,Humans cannot eat food,j,,,,,,,,,,,,,,,,
,,,,,,,,6598,2022-04-06_16h06.45.034,ImplicitInfinitySC-SLOWTASK,2021.2.3,Win32,60.0240096,f,1,1.39,space,1.152,0,8,8,2,1,Magenta is a color,f,,,,,,,,,,,,,,,,
,,,,,,,,6598,2022-04-06_16h06.45.034,ImplicitInfinitySC-SLOWTASK,2021.2.3,Win32,60.0240096,j,1,1.856,space,1.035,0,9,9,5,1,A truck is an animal,j,,,,,,,,,,,,,,,,
,,,,,,,,6598,2022-04-06_16h06.45.034,ImplicitInfinitySC-SLOWTASK,2021.2.3,Win32,60.0240096,,,,space,1.501,,,,,,,,space,5.802,j,1,1.563,,0,0,0,111,1,A circle is a flavor,j,,,
,,,,,,,,6598,2022-04-06_16h06.45.034,ImplicitInfinitySC-SLOWTASK,2021.2.3,Win32,60.0240096,,,,space,1.002,,,,,,,,,,f,1,1.622,,0,1,1,99,1,A motorcycle is a vehicle,f,,,
,,,,,,,,6598,2022-04-06_16h06.45.034,ImplicitInfinitySC-SLOWTASK,2021.2.3,Win32,60.0240096,,,,space,0.972,,,,,,,,,,j,1,1.819,,0,2,2,78,1,Hammers are alive,j,,,
,,,,,,,,6598,2022-04-06_16h06.45.034,ImplicitInfinitySC-SLOWTASK,2021.2.3,Win32,60.0240096,,,,space,2.586,,,,,,,,,,j,1,2.616,,0,3,3,41,1,The number five is infinite,j,,,
,,,,,,,,6598,2022-04-06_16h06.45.034,ImplicitInfinitySC-SLOWTASK,2021.2.3,Win32,60.0240096,,,,space,1.088,,,,,,,,,,j,1,4.175,,0,4,4,18,1,Time has an end,j,,,
,,,,,,,,6598,2022-04-06_16h06.45.034,ImplicitInfinitySC-SLOWTASK,2021.2.3,Win32,60.0240096,,,,space,0.685,,,,,,,,,,f,1,1.818,,0,5,5,88,1,This sentence is written in English,f,,,
,,,,,,,,6598,2022-04-06_16h06.45.034,ImplicitInfinitySC-SLOWTASK,2021.2.3,Win32,60.0240096,,,,space,0.824,,,,,,,,,,f,0,2.966,,0,6,6,63,1,Color can be put in a container,j,,,
,,,,,,,,6598,2022-04-06_16h06.45.034,ImplicitInfinitySC-SLOWTASK,2021.2.3,Win32,60.0240096,,,,space,0.768,,,,,,,,,,j,1,1.935,,0,7,7,11,1,An inch is endless,j,,,
,,,,,,,,6598,2022-04-06_16h06.45.034,ImplicitInfinitySC-SLOWTASK,2021.2.3,Win32,60.0240096,,,,space,0.552,,,,,,,,,,f,1,1.773,,0,8,8,52,1,Frogs reproduce,f,,,
,,,,,,,,6598,2022-04-06_16h06.45.034,ImplicitInfinitySC-SLOWTASK,2021.2.3,Win32,60.0240096,,,,space,0.626,,,,,,,,,,f,1,2.776,,0,9,9,8,1,An inch is finite,f,,,
,,,,,,,,6598,2022-04-06_16h06.45.034,ImplicitInfinitySC-SLOWTASK,2021.2.3,Win32,60.0240096,,,,space,0.759,,,,,,,,,,f,1,3.781,,0,10,10,77,1,Saliva has a molecular structure,f,,,
,,,,,,,,6598,2022-04-06_16h06.45.034,ImplicitInfinitySC-SLOWTASK,2021.2.3,Win32,60.0240096,,,,space,0.65,,,,,,,,,,j,1,1.806,,0,11,11,117,1,Dolphins cannot swim in the ocean,j,,,
,,,,,,,,6598,2022-04-06_16h06.45.034,ImplicitInfinitySC-SLOWTASK,2021.2.3,Win32,60.0240096,,,,space,0.854,,,,,,,,,,f,1,2.122,,0,12,12,27,1,Space is endless,f,,,
,,,,,,,,6598,2022-04-06_16h06.45.034,ImplicitInfinitySC-SLOWTASK,2021.2.3,Win32,60.0240096,,,,space,0.493,,,,,,,,,,f,1,2.283,,0,13,13,25,1,Space is infinite,f,,,
,,,,,,,,6598,2022-04-06_16h06.45.034,ImplicitInfinitySC-SLOWTASK,2021.2.3,Win32,60.0240096,,,,space,0.478,,,,,,,,,,f,1,1.884,,0,14,14,68,1,Algae is alive,f,,,
,,,,,,,,6598,2022-04-06_16h06.45.034,ImplicitInfinitySC-SLOWTASK,2021.2.3,Win32,60.0240096,,,,space,0.702,,,,,,,,,,j,1,1.434,,0,15,15,82,1,Stones reproduce,j,,,
,,,,,,,,6598,2022-04-06_16h06.45.034,ImplicitInfinitySC-SLOWTASK,2021.2.3,Win32,60.0240096,,,,space,0.451,,,,,,,,,,f,1,2.008,,0,16,16,2,1,A minute has an end,f,,,
,,,,,,,,6598,2022-04-06_16h06.45.034,ImplicitInfinitySC-SLOWTASK,2021.2.3,Win32,60.0240096,,,,space,0.468,,,,,,,,,,f,1,1.539,,0,17,17,10,1,An inch has an end,f,,,
,,,,,,,,6598,2022-04-06_16h06.45.034,ImplicitInfinitySC-SLOWTASK,2021.2.3,Win32,60.0240096,,,,space,0.856,,,,,,,,,,j,1,3.464,,0,18,18,30,1,Space cannot always be further divided,j,,,
,,,,,,,,6598,2022-04-06_16h06.45.034,ImplicitInfinitySC-SLOWTASK,2021.2.3,Win32,60.0240096,,,,space,0.557,,,,,,,,,,f,1,1.388,,0,19,19,102,1,The Earth is a planet,f,,,
,,,,,,,,6598,2022-04-06_16h06.45.034,ImplicitInfinitySC-SLOWTASK,2021.2.3,Win32,60.0240096,,,,space,1.088,,,,,,,,,,j,0,3.1,,0,20,20,33,1,Numbers are infinite,f,,,
,,,,,,,,6598,2022-04-06_16h06.45.034,ImplicitInfinitySC-SLOWTASK,2021.2.3,Win32,60.0240096,,,,space,0.504,,,,,,,,,,j,1,1.474,,0,21,21,113,1,Magenta is a shape,j,,,
,,,,,,,,6598,2022-04-06_16h06.45.034,ImplicitInfinitySC-SLOWTASK,2021.2.3,Win32,60.0240096,,,,space,0.835,,,,,,,,,,f,1,2.883,,0,22,22,47,1,The number five can always be further divided,f,,,
,,,,,,,,6598,2022-04-06_16h06.45.034,ImplicitInfinitySC-SLOWTASK,2021.2.3,Win32,60.0240096,,,,space,0.718,,,,,,,,,,j,1,1.642,,0,23,23,108,1,This sentence is written in Spanish,j,,,
,,,,,,,,6598,2022-04-06_16h06.45.034,ImplicitInfinitySC-SLOWTASK,2021.2.3,Win32,60.0240096,,,,space,0.419,,,,,,,,,,f,1,1.586,,0,24,24,89,1,A square is a shape,f,,,
,,,,,,,,6598,2022-04-06_16h06.45.034,ImplicitInfinitySC-SLOWTASK,2021.2.3,Win32,60.0240096,,,,space,0.508,,,,,,,,,,f,1,2.486,,0,25,25,31,1,Space can always be further divided,f,,,
,,,,,,,,6598,2022-04-06_16h06.45.034,ImplicitInfinitySC-SLOWTASK,2021.2.3,Win32,60.0240096,,,,space,0.41,,,,,,,,,,f,1,2.1,,0,26,26,56,1,Diamonds have a molecular structure,f,,,
,,,,,,,,6598,2022-04-06_16h06.45.034,ImplicitInfinitySC-SLOWTASK,2021.2.3,Win32,60.0240096,,,,space,0.475,,,,,,,,,,f,1,2.35,,0,27,27,53,1,Bricks can be put in a container,f,,,
,,,,,,,,6598,2022-04-06_16h06.45.034,ImplicitInfinitySC-SLOWTASK,2021.2.3,Win32,60.0240096,,,,space,0.537,,,,,,,,,,j,1,1.715,,0,28,28,87,1,Dreams have a molecular structure,j,,,
,,,,,,,,6598,2022-04-06_16h06.45.034,ImplicitInfinitySC-SLOWTASK,2021.2.3,Win32,60.0240096,,,,space,0.468,,,,,,,,,,j,1,1.517,,0,29,29,60,1,Robots need nutrients,j,,,
,,,,,,,,6598,2022-04-06_16h06.45.034,ImplicitInfinitySC-SLOWTASK,2021.2.3,Win32,60.0240096,,,,space,0.468,,,,,,,,,,j,1,1.715,,0,30,30,20,1,Time cannot go on forever,j,,,
,,,,,,,,6598,2022-04-06_16h06.45.034,ImplicitInfinitySC-SLOWTASK,2021.2.3,Win32,60.0240096,,,,space,0.724,,,,,,,,,,f,1,1.886,,0,31,31,74,1,Foam is composed of matter,f,,,
,,,,,,,,6598,2022-04-06_16h06.45.034,ImplicitInfinitySC-SLOWTASK,2021.2.3,Win32,60.0240096,,,,space,0.476,,,,,,,,,,j,1,1.62,,0,32,32,43,1,The number five is endless,j,,,
,,,,,,,,6598,2022-04-06_16h06.45.034,ImplicitInfinitySC-SLOWTASK,2021.2.3,Win32,60.0240096,,,,space,0.702,,,,,,,,,,f,1,1.559,,0,33,33,21,1,Time can go on forever,f,,,
,,,,,,,,6598,2022-04-06_16h06.45.034,ImplicitInfinitySC-SLOWTASK,2021.2.3,Win32,60.0240096,,,,space,0.562,,,,,,,,,,j,1,1.858,,0,34,34,84,1,Silence is composed of matter,j,,,
,,,,,,,,6598,2022-04-06_16h06.45.034,ImplicitInfinitySC-SLOWTASK,2021.2.3,Win32,60.0240096,,,,space,0.559,,,,,,,,,,f,1,1.488,,0,35,35,70,1,Grass needs nutrients,f,,,
,,,,,,,,6598,2022-04-06_16h06.45.034,ImplicitInfinitySC-SLOWTASK,2021.2.3,Win32,60.0240096,,,,space,0.485,,,,,,,,,,f,1,1.756,,0,36,36,55,1,Concrete is composed of matter,f,,,
,,,,,,,,6598,2022-04-06_16h06.45.034,ImplicitInfinitySC-SLOWTASK,2021.2.3,Win32,60.0240096,,,,space,0.634,,,,,,,,,,j,1,1.289,,0,37,37,109,1,A square is a color,j,,,
,,,,,,,,6598,2022-04-06_16h06.45.034,ImplicitInfinitySC-SLOWTASK,2021.2.3,Win32,60.0240096,,,,space,0.717,,,,,,,,,,j,1,2.02,,0,38,38,3,1,A minute is endless,j,,,
,,,,,,,,6598,2022-04-06_16h06.45.034,ImplicitInfinitySC-SLOWTASK,2021.2.3,Win32,60.0240096,,,,space,0.537,,,,,,,,,,f,1,2.075,,0,39,39,39,1,Numbers can always be further divided,f,,,
,,,,,,,,6598,2022-04-06_16h06.45.034,ImplicitInfinitySC-SLOWTASK,2021.2.3,Win32,60.0240096,,,,space,1.269,,,,,,,,,,f,1,3.154,space,0,40,40,19,1,Time is endless,f,0.171,,
,,,,,,,,6598,2022-04-06_16h06.45.034,ImplicitInfinitySC-SLOWTASK,2021.2.3,Win32,60.0240096,,,,space,1.034,,,,,,,,,,f,1,1.783,,0,41,41,103,1,The United States is a country,f,,,
,,,,,,,,6598,2022-04-06_16h06.45.034,ImplicitInfinitySC-SLOWTASK,2021.2.3,Win32,60.0240096,,,,space,0.485,,,,,,,,,,f,1,1.588,,0,42,42,71,1,Oaks reproduce,f,,,
,,,,,,,,6598,2022-04-06_16h06.45.034,ImplicitInfinitySC-SLOWTASK,2021.2.3,Win32,60.0240096,,,,space,0.541,,,,,,,,,,f,1,2.854,,0,43,43,44,1,The number five cannot go on forever,f,,,
,,,,,,,,6598,2022-04-06_16h06.45.034,ImplicitInfinitySC-SLOWTASK,2021.2.3,Win32,60.0240096,,,,space,0.852,,,,,,,,,,j,1,1.837,,0,44,44,9,1,An inch is infinite,j,,,
,,,,,,,,6598,2022-04-06_16h06.45.034,ImplicitInfinitySC-SLOWTASK,2021.2.3,Win32,60.0240096,,,,space,0.544,,,,,,,,,,j,1,1.239,,0,45,45,123,1,Mississippi is a country,j,,,
,,,,,,,,6598,2022-04-06_16h06.45.034,ImplicitInfinitySC-SLOWTASK,2021.2.3,Win32,60.0240096,,,,space,0.473,,,,,,,,,,f,1,1.975,,0,46,46,40,1,The number five is finite,f,,,
,,,,,,,,6598,2022-04-06_16h06.45.034,ImplicitInfinitySC-SLOWTASK,2021.2.3,Win32,60.0240096,,,,space,0.406,,,,,,,,,,f,1,1.603,,0,47,47,94,1,Orange is a color,f,,,
,,,,,,,,6598,2022-04-06_16h06.45.034,ImplicitInfinitySC-SLOWTASK,2021.2.3,Win32,60.0240096,,,,space,0.501,,,,,,,,,,j,1,1.467,,0,48,48,62,1,Helicopters reproduce,j,,,
,,,,,,,,6598,2022-04-06_16h06.45.034,ImplicitInfinitySC-SLOWTASK,2021.2.3,Win32,60.0240096,,,,space,0.5,,,,,,,,,,j,0,1.953,,0,49,49,35,1,Numbers are endless,f,,,
,,,,,,,,6598,2022-04-06_16h06.45.034,ImplicitInfinitySC-SLOWTASK,2021.2.3,Win32,60.0240096,,,,space,0.459,,,,,,,,,,j,1,1.236,,0,50,50,79,1,Forks are alive,j,,,
,,,,,,,,6598,2022-04-06_16h06.45.034,ImplicitInfinitySC-SLOWTASK,2021.2.3,Win32,60.0240096,,,,space,0.477,,,,,,,,,,f,1,1.316,,0,51,51,91,1,A circle is a shape,f,,,
,,,,,,,,6598,2022-04-06_16h06.45.034,ImplicitInfinitySC-SLOWTASK,2021.2.3,Win32,60.0240096,,,,space,0.439,,,,,,,,,,f,1,1.805,,0,52,52,97,1,Dolphins can swim in the ocean,f,,,
,,,,,,,,6598,2022-04-06_16h06.45.034,ImplicitInfinitySC-SLOWTASK,2021.2.3,Win32,60.0240096,,,,space,0.435,,,,,,,,,,f,1,1,,0,53,53,49,1,Pelicans are alive,f,,,
,,,,,,,,6598,2022-04-06_16h06.45.034,ImplicitInfinitySC-SLOWTASK,2021.2.3,Win32,60.0240096,,,,space,0.372,,,,,,,,,,f,1,1.903,,0,54,54,0,1,A minute is finite,f,,,
,,,,,,,,6598,2022-04-06_16h06.45.034,ImplicitInfinitySC-SLOWTASK,2021.2.3,Win32,60.0240096,,,,space,0.401,,,,,,,,,,f,1,1.106,,0,55,55,48,1,Crocodiles are alive,f,,,
,,,,,,,,6598,2022-04-06_16h06.45.034,ImplicitInfinitySC-SLOWTASK,2021.2.3,Win32,60.0240096,,,,space,0.36,,,,,,,,,,f,0,1.516,,0,56,56,34,1,Numbers have an end,j,,,
,,,,,,,,6598,2022-04-06_16h06.45.034,ImplicitInfinitySC-SLOWTASK,2021.2.3,Win32,60.0240096,,,,space,0.503,,,,,,,,,,j,1,1.816,,0,57,57,121,1,Jupiter is the planet we live on,j,,,
,,,,,,,,6598,2022-04-06_16h06.45.034,ImplicitInfinitySC-SLOWTASK,2021.2.3,Win32,60.0240096,,,,space,0.35,,,,,,,,,,f,1,1.766,,0,58,58,57,1,Rocks have a molecular structure,f,,,
,,,,,,,,6598,2022-04-06_16h06.45.034,ImplicitInfinitySC-SLOWTASK,2021.2.3,Win32,60.0240096,,,,space,0.418,,,,,,,,,,f,1,3.153,,0,59,59,17,1,Time is infinite,f,,,
,,,,,,,,6598,2022-04-06_16h06.45.034,ImplicitInfinitySC-SLOWTASK,2021.2.3,Win32,60.0240096,,,,space,0.669,,,,,,,,,,j,1,1.624,,0,60,60,126,1,Humans can breathe water,j,,,
,,,,,,,,6598,2022-04-06_16h06.45.034,ImplicitInfinitySC-SLOWTASK,2021.2.3,Win32,60.0240096,,,,space,0.436,,,,,,,,,,j,1,1.732,,0,61,61,124,1,The president of the United States is Oprah,j,,,
,,,,,,,,6598,2022-04-06_16h06.45.034,ImplicitInfinitySC-SLOWTASK,2021.2.3,Win32,60.0240096,,,,space,0.419,,,,,,,,,,f,1,1.383,,0,62,62,96,1,Fish can swim in the ocean,f,,,
,,,,,,,,6598,2022-04-06_16h06.45.034,ImplicitInfinitySC-SLOWTASK,2021.2.3,Win32,60.0240096,,,,space,0.458,,,,,,,,,,j,1,1.56,,0,63,63,116,1,Fish cannot swim in the ocean,j,,,
,,,,,,,,6598,2022-04-06_16h06.45.034,ImplicitInfinitySC-SLOWTASK,2021.2.3,Win32,60.0240096,,,,space,0.486,,,,,,,,,,j,1,1.773,,0,64,64,83,1,Songs can be put in a container,j,,,
,,,,,,,,6598,2022-04-06_16h06.45.034,ImplicitInfinitySC-SLOWTASK,2021.2.3,Win32,60.0240096,,,,space,0.403,,,,,,,,,,f,1,1.369,,0,65,65,107,1,A pencil is used to write,f,,,
,,,,,,,,6598,2022-04-06_16h06.45.034,ImplicitInfinitySC-SLOWTASK,2021.2.3,Win32,60.0240096,,,,space,0.418,,,,,,,,,,j,1,1.422,,0,66,66,118,1,A horse is used to tell time,j,,,
,,,,,,,,6598,2022-04-06_16h06.45.034,ImplicitInfinitySC-SLOWTASK,2021.2.3,Win32,60.0240096,,,,space,0.491,,,,,,,,,,f,1,1.267,,0,67,67,69,1,Bacteria are alive,f,,,
,,,,,,,,6598,2022-04-06_16h06.45.034,ImplicitInfinitySC-SLOWTASK,2021.2.3,Win32,60.0240096,,,,space,0.402,,,,,,,,,,f,1,1.42,,0,68,68,98,1,A clock is used to tell time,f,,,
,,,,,,,,6598,2022-04-06_16h06.45.034,ImplicitInfinitySC-SLOWTASK,2021.2.3,Win32,60.0240096,,,,space,0.492,,,,,,,,,,f,1,2.183,,0,69,69,7,1,A minute can always be further divided,f,,,
,,,,,,,,6598,2022-04-06_16h06.45.034,ImplicitInfinitySC-SLOWTASK,2021.2.3,Win32,60.0240096,,,,space,0.517,,,,,,,,,,f,1,1.454,,0,70,70,93,1,Magenta is a color,f,,,
,,,,,,,,6598,2022-04-06_16h06.45.034,ImplicitInfinitySC-SLOWTASK,2021.2.3,Win32,60.0240096,,,,space,0.522,,,,,,,,,,j,1,1.484,,0,71,71,66,1,Music has a molecular structure,j,,,
,,,,,,,,6598,2022-04-06_16h06.45.034,ImplicitInfinitySC-SLOWTASK,2021.2.3,Win32,60.0240096,,,,space,0.486,,,,,,,,,,j,1,2.202,,0,72,72,26,1,Space has an end,j,,,
,,,,,,,,6598,2022-04-06_16h06.45.034,ImplicitInfinitySC-SLOWTASK,2021.2.3,Win32,60.0240096,,,,space,0.438,,,,,,,,,,j,1,1.599,,0,73,73,85,1,Thoughts are composed of matter,j,,,
,,,,,,,,6598,2022-04-06_16h06.45.034,ImplicitInfinitySC-SLOWTASK,2021.2.3,Win32,60.0240096,,,,space,0.571,,,,,,,,,,j,1,1.748,,0,74,74,125,1,There are ninty states in the United States,j,,,
,,,,,,,,6598,2022-04-06_16h06.45.034,ImplicitInfinitySC-SLOWTASK,2021.2.3,Win32,60.0240096,,,,space,0.468,,,,,,,,,,j,0,1.874,,0,75,75,12,1,An inch cannot go on forever,f,,,
,,,,,,,,6598,2022-04-06_16h06.45.034,ImplicitInfinitySC-SLOWTASK,2021.2.3,Win32,60.0240096,,,,space,0.519,,,,,,,,,,j,1,2.933,,0,76,76,1,1,A minute is infinite,j,,,
,,,,,,,,6598,2022-04-06_16h06.45.034,ImplicitInfinitySC-SLOWTASK,2021.2.3,Win32,60.0240096,,,,space,0.406,,,,,,,,,,f,1,1.253,,0,77,77,104,1,The United States has a president,f,,,
,,,,,,,,6598,2022-04-06_16h06.45.034,ImplicitInfinitySC-SLOWTASK,2021.2.3,Win32,60.0240096,,,,space,0.468,,,,,,,,,,j,1,1.433,,0,78,78,45,1,The number five can go on forever,j,,,
,,,,,,,,6598,2022-04-06_16h06.45.034,ImplicitInfinitySC-SLOWTASK,2021.2.3,Win32,60.0240096,,,,space,0.551,,,,,,,,,,j,1,1.188,,0,79,79,81,1,Tables reproduce,j,,,
,,,,,,,,6598,2022-04-06_16h06.45.034,ImplicitInfinitySC-SLOWTASK,2021.2.3,Win32,60.0240096,,,,space,0.585,,,,,,,,,,j,1,1.284,,0,80,80,13,1,An inch can go on forever,j,,,
,,,,,,,,6598,2022-04-06_16h06.45.034,ImplicitInfinitySC-SLOWTASK,2021.2.3,Win32,60.0240096,,,,,,,,,,,,,,,,,,,,,,,,,,,space,18.258
