SlowInstrKey.keys,SlowInstrKey.rt,SlowInstrLoop.thisRepN,SlowInstrLoop.thisTrialN,SlowInstrLoop.thisN,SlowInstrLoop.thisIndex,SlowInstrLoop.ran,SlowInstructions,participant,date,expName,psychopyVersion,OS,frameRate,key_resp_5.keys,key_resp_5.corr,key_resp_5.rt,key_resp_4.keys,key_resp_4.rt,slowpracticeloop.thisRepN,slowpracticeloop.thisTrialN,slowpracticeloop.thisN,slowpracticeloop.thisIndex,slowpracticeloop.ran,practicetext,practicecorrect,key_resp_3.keys,key_resp_3.rt,SlowKey.keys,SlowKey.corr,SlowKey.rt,encouragekey.keys,SlowLoop.thisRepN,SlowLoop.thisTrialN,SlowLoop.thisN,SlowLoop.thisIndex,SlowLoop.ran,Statement,Correct,encouragekey.rt,endstudykey.keys,endstudykey.rt
space,8.9744,0,0,0,0,1,"You will be shown a total of 80 statements pertaining to mathematics, science, and social concepts. Your task is to determine whether each statement is true or false. Some statements will be difficult and some will be easier.  We do not expect you to know the correct answer for all 80 statements.  Press SPACE to Continue",7016,2022-04-06_19h19.10.908,ImplicitInfinitySC-SLOWTASK,2021.2.3,Win32,61.2782646,,,,,,,,,,,,,,,,,,,,,,,,,,,,
space,10.229,0,1,1,1,1,"We urge you to try your best and take your time. Each statement will appear on your screen and you will have 10 seconds to decide if it is true or false. You will hear a beep at 6 seconds that will prompt you to respond within the next 4 seconds. If you fail to respond within this time, the trial will be counted as incorrect and the next statement will appear. Press SPACE to continue",7016,2022-04-06_19h19.10.908,ImplicitInfinitySC-SLOWTASK,2021.2.3,Win32,61.2782646,,,,,,,,,,,,,,,,,,,,,,,,,,,,
space,5.8529,0,2,2,2,1,"If the statement is true, you will press the “F” key on your keyboard with your left pointer finger; if the statement is false, you will press the “J” key on your keyboard with your right pointer finger. Press SPACE to continue",7016,2022-04-06_19h19.10.908,ImplicitInfinitySC-SLOWTASK,2021.2.3,Win32,61.2782646,,,,,,,,,,,,,,,,,,,,,,,,,,,,
space,2.0543,0,3,3,3,1,Take your time and go slowly! You have 10 seconds to answer! Press SPACE to continue. ,7016,2022-04-06_19h19.10.908,ImplicitInfinitySC-SLOWTASK,2021.2.3,Win32,61.2782646,,,,,,,,,,,,,,,,,,,,,,,,,,,,
,,,,,,,,7016,2022-04-06_19h19.10.908,ImplicitInfinitySC-SLOWTASK,2021.2.3,Win32,61.2782646,j,1,1.6204,space,0.9806,0,0,0,9,1,Humans cannot eat food,j,,,,,,,,,,,,,,,,
,,,,,,,,7016,2022-04-06_19h19.10.908,ImplicitInfinitySC-SLOWTASK,2021.2.3,Win32,61.2782646,f,1,1.262,space,0.6695,0,1,1,3,1,A clock is used to tell time,f,,,,,,,,,,,,,,,,
,,,,,,,,7016,2022-04-06_19h19.10.908,ImplicitInfinitySC-SLOWTASK,2021.2.3,Win32,61.2782646,f,1,1.434,space,0.5333,0,2,2,1,1,Dinosaurs are extinct,f,,,,,,,,,,,,,,,,
,,,,,,,,7016,2022-04-06_19h19.10.908,ImplicitInfinitySC-SLOWTASK,2021.2.3,Win32,61.2782646,j,1,1.1953,space,0.7365,0,3,3,5,1,A truck is an animal,j,,,,,,,,,,,,,,,,
,,,,,,,,7016,2022-04-06_19h19.10.908,ImplicitInfinitySC-SLOWTASK,2021.2.3,Win32,61.2782646,j,1,1.7006,space,0.5515,0,4,4,8,1,Mississippi is a country,j,,,,,,,,,,,,,,,,
,,,,,,,,7016,2022-04-06_19h19.10.908,ImplicitInfinitySC-SLOWTASK,2021.2.3,Win32,61.2782646,f,1,0.9476,space,0.4419,0,5,5,0,1,A circle is a shape,f,,,,,,,,,,,,,,,,
,,,,,,,,7016,2022-04-06_19h19.10.908,ImplicitInfinitySC-SLOWTASK,2021.2.3,Win32,61.2782646,j,1,1.3398,space,0.5377,0,6,6,7,1,The Earth is a star,j,,,,,,,,,,,,,,,,
,,,,,,,,7016,2022-04-06_19h19.10.908,ImplicitInfinitySC-SLOWTASK,2021.2.3,Win32,61.2782646,f,1,1.8615,space,0.3985,0,7,7,4,1,Humans cannot breathe water,f,,,,,,,,,,,,,,,,
,,,,,,,,7016,2022-04-06_19h19.10.908,ImplicitInfinitySC-SLOWTASK,2021.2.3,Win32,61.2782646,f,1,1.3993,space,0.3862,0,8,8,2,1,Magenta is a color,f,,,,,,,,,,,,,,,,
,,,,,,,,7016,2022-04-06_19h19.10.908,ImplicitInfinitySC-SLOWTASK,2021.2.3,Win32,61.2782646,j,1,1.5786,space,0.3894,0,9,9,6,1,Jupiter is the planet we live on,j,,,,,,,,,,,,,,,,
,,,,,,,,7016,2022-04-06_19h19.10.908,ImplicitInfinitySC-SLOWTASK,2021.2.3,Win32,61.2782646,,,,space,0.5921,,,,,,,,space,1.936,j,1,1.2435,,0,0,0,82,1,Stones reproduce,j,,,
,,,,,,,,7016,2022-04-06_19h19.10.908,ImplicitInfinitySC-SLOWTASK,2021.2.3,Win32,61.2782646,,,,space,0.5557,,,,,,,,,,f,1,1.7039,,0,1,1,90,1,A triangle is not an animal,f,,,
,,,,,,,,7016,2022-04-06_19h19.10.908,ImplicitInfinitySC-SLOWTASK,2021.2.3,Win32,61.2782646,,,,space,0.4542,,,,,,,,,,f,1,1.452,,0,2,2,27,1,Space is endless,f,,,
,,,,,,,,7016,2022-04-06_19h19.10.908,ImplicitInfinitySC-SLOWTASK,2021.2.3,Win32,61.2782646,,,,space,0.4026,,,,,,,,,,f,1,1.2964,,0,3,3,37,1,Numbers can go on forever,f,,,
,,,,,,,,7016,2022-04-06_19h19.10.908,ImplicitInfinitySC-SLOWTASK,2021.2.3,Win32,61.2782646,,,,space,0.5344,,,,,,,,,,j,1,3.2861,,0,4,4,16,1,Time is finite,j,,,
,,,,,,,,7016,2022-04-06_19h19.10.908,ImplicitInfinitySC-SLOWTASK,2021.2.3,Win32,61.2782646,,,,space,0.4651,,,,,,,,,,f,1,3.2557,,0,5,5,56,1,Diamonds have a molecular structure,f,,,
,,,,,,,,7016,2022-04-06_19h19.10.908,ImplicitInfinitySC-SLOWTASK,2021.2.3,Win32,61.2782646,,,,space,0.5072,,,,,,,,,,f,1,3.6251,,0,6,6,7,1,A minute can always be further divided,f,,,
,,,,,,,,7016,2022-04-06_19h19.10.908,ImplicitInfinitySC-SLOWTASK,2021.2.3,Win32,61.2782646,,,,space,0.5156,,,,,,,,,,f,1,2.3576,,0,7,7,106,1,Humans cannot breathe water,f,,,
,,,,,,,,7016,2022-04-06_19h19.10.908,ImplicitInfinitySC-SLOWTASK,2021.2.3,Win32,61.2782646,,,,space,0.5316,,,,,,,,,,j,1,2.7964,,0,8,8,11,1,An inch is endless,j,,,
,,,,,,,,7016,2022-04-06_19h19.10.908,ImplicitInfinitySC-SLOWTASK,2021.2.3,Win32,61.2782646,,,,space,0.4374,,,,,,,,,,j,1,1.3095,,0,9,9,36,1,Numbers cannot go on forever,j,,,
,,,,,,,,7016,2022-04-06_19h19.10.908,ImplicitInfinitySC-SLOWTASK,2021.2.3,Win32,61.2782646,,,,space,0.4663,,,,,,,,,,f,1,1.9849,,0,10,10,0,1,A minute is finite,f,,,
,,,,,,,,7016,2022-04-06_19h19.10.908,ImplicitInfinitySC-SLOWTASK,2021.2.3,Win32,61.2782646,,,,space,0.4238,,,,,,,,,,j,1,1.4014,,0,11,11,59,1,Comets are alive,j,,,
,,,,,,,,7016,2022-04-06_19h19.10.908,ImplicitInfinitySC-SLOWTASK,2021.2.3,Win32,61.2782646,,,,space,0.4705,,,,,,,,,,j,1,3.5308,,0,12,12,67,1,Gravity has a molecular structure,j,,,
,,,,,,,,7016,2022-04-06_19h19.10.908,ImplicitInfinitySC-SLOWTASK,2021.2.3,Win32,61.2782646,,,,space,0.44,,,,,,,,,,f,1,1.8745,,0,13,13,39,1,Numbers can always be further divided,f,,,
,,,,,,,,7016,2022-04-06_19h19.10.908,ImplicitInfinitySC-SLOWTASK,2021.2.3,Win32,61.2782646,,,,space,0.501,,,,,,,,,,j,1,0.9993,,0,14,14,61,1,Sailboats reproduce,j,,,
,,,,,,,,7016,2022-04-06_19h19.10.908,ImplicitInfinitySC-SLOWTASK,2021.2.3,Win32,61.2782646,,,,space,0.4494,,,,,,,,,,f,1,1.7507,,0,15,15,50,1,Turtles need nutrients,f,,,
,,,,,,,,7016,2022-04-06_19h19.10.908,ImplicitInfinitySC-SLOWTASK,2021.2.3,Win32,61.2782646,,,,space,0.3845,,,,,,,,,,f,1,2.081,,0,16,16,54,1,Dumbells are composed of matter,f,,,
,,,,,,,,7016,2022-04-06_19h19.10.908,ImplicitInfinitySC-SLOWTASK,2021.2.3,Win32,61.2782646,,,,space,0.3986,,,,,,,,,,j,1,1.689,,0,17,17,62,1,Helicopters reproduce,j,,,
,,,,,,,,7016,2022-04-06_19h19.10.908,ImplicitInfinitySC-SLOWTASK,2021.2.3,Win32,61.2782646,,,,space,0.3725,,,,,,,,,,f,1,1.2496,,0,18,18,97,1,Dolphins can swim in the ocean,f,,,
,,,,,,,,7016,2022-04-06_19h19.10.908,ImplicitInfinitySC-SLOWTASK,2021.2.3,Win32,61.2782646,,,,space,0.4023,,,,,,,,,,j,1,1.0239,,0,19,19,109,1,A square is a color,j,,,
,,,,,,,,7016,2022-04-06_19h19.10.908,ImplicitInfinitySC-SLOWTASK,2021.2.3,Win32,61.2782646,,,,space,0.7196,,,,,,,,,,j,1,1.7913,,0,20,20,41,1,The number five is infinite,j,,,
,,,,,,,,7016,2022-04-06_19h19.10.908,ImplicitInfinitySC-SLOWTASK,2021.2.3,Win32,61.2782646,,,,space,0.3571,,,,,,,,,,j,1,2.6903,,0,21,21,14,1,An inch cannot always be further divided,j,,,
,,,,,,,,7016,2022-04-06_19h19.10.908,ImplicitInfinitySC-SLOWTASK,2021.2.3,Win32,61.2782646,,,,space,0.3986,,,,,,,,,,f,1,1.2882,,0,22,22,25,1,Space is infinite,f,,,
,,,,,,,,7016,2022-04-06_19h19.10.908,ImplicitInfinitySC-SLOWTASK,2021.2.3,Win32,61.2782646,,,,space,0.4257,,,,,,,,,,j,1,3.6006,,0,23,23,32,1,Numbers are finite,j,,,
,,,,,,,,7016,2022-04-06_19h19.10.908,ImplicitInfinitySC-SLOWTASK,2021.2.3,Win32,61.2782646,,,,space,0.397,,,,,,,,,,f,1,1.6468,,0,24,24,104,1,The United States has a president,f,,,
,,,,,,,,7016,2022-04-06_19h19.10.908,ImplicitInfinitySC-SLOWTASK,2021.2.3,Win32,61.2782646,,,,space,0.3533,,,,,,,,,,f,1,0.9889,,0,25,25,35,1,Numbers are endless,f,,,
,,,,,,,,7016,2022-04-06_19h19.10.908,ImplicitInfinitySC-SLOWTASK,2021.2.3,Win32,61.2782646,,,,space,0.4728,,,,,,,,,,j,1,5.388,,0,26,26,22,1,Time cannot always be further divided,j,,,
,,,,,,,,7016,2022-04-06_19h19.10.908,ImplicitInfinitySC-SLOWTASK,2021.2.3,Win32,61.2782646,,,,space,0.476,,,,,,,,,,f,1,2.6112,,0,27,27,101,1,Jupiter is in our solar system,f,,,
,,,,,,,,7016,2022-04-06_19h19.10.908,ImplicitInfinitySC-SLOWTASK,2021.2.3,Win32,61.2782646,,,,space,0.3902,,,,,,,,,,f,1,1.3012,,0,28,28,57,1,Rocks have a molecular structure,f,,,
,,,,,,,,7016,2022-04-06_19h19.10.908,ImplicitInfinitySC-SLOWTASK,2021.2.3,Win32,61.2782646,,,,space,0.4227,,,,,,,,,,j,0,0.9877,,0,29,29,72,1,Mushrooms reproduce,f,,,
,,,,,,,,7016,2022-04-06_19h19.10.908,ImplicitInfinitySC-SLOWTASK,2021.2.3,Win32,61.2782646,,,,space,0.4652,,,,,,,,,,j,1,3.3039,,0,30,30,20,1,Time cannot go on forever,j,,,
,,,,,,,,7016,2022-04-06_19h19.10.908,ImplicitInfinitySC-SLOWTASK,2021.2.3,Win32,61.2782646,,,,space,0.4319,,,,,,,,,,f,1,1.6415,,0,31,31,4,1,A minute cannot go on forever,f,,,
,,,,,,,,7016,2022-04-06_19h19.10.908,ImplicitInfinitySC-SLOWTASK,2021.2.3,Win32,61.2782646,,,,space,0.2863,,,,,,,,,,f,1,2.0689,,0,32,32,31,1,Space can always be further divided,f,,,
,,,,,,,,7016,2022-04-06_19h19.10.908,ImplicitInfinitySC-SLOWTASK,2021.2.3,Win32,61.2782646,,,,space,0.3682,,,,,,,,,,f,1,1.2755,,0,33,33,19,1,Time is endless,f,,,
,,,,,,,,7016,2022-04-06_19h19.10.908,ImplicitInfinitySC-SLOWTASK,2021.2.3,Win32,61.2782646,,,,space,0.4634,,,,,,,,,,j,1,3.0055,,0,34,34,46,1,The number five cannot always be further divided,j,,,
,,,,,,,,7016,2022-04-06_19h19.10.908,ImplicitInfinitySC-SLOWTASK,2021.2.3,Win32,61.2782646,,,,space,0.3736,,,,,,,,,,f,1,2.1991,,0,35,35,94,1,Orange is a color,f,,,
,,,,,,,,7016,2022-04-06_19h19.10.908,ImplicitInfinitySC-SLOWTASK,2021.2.3,Win32,61.2782646,,,,space,0.449,,,,,,,,,,j,1,3.6265,,0,36,36,6,1,A minute cannot always be further divided,j,,,
,,,,,,,,7016,2022-04-06_19h19.10.908,ImplicitInfinitySC-SLOWTASK,2021.2.3,Win32,61.2782646,,,,space,0.3483,,,,,,,,,,f,1,0.8969,,0,37,37,103,1,The United States is a country,f,,,
,,,,,,,,7016,2022-04-06_19h19.10.908,ImplicitInfinitySC-SLOWTASK,2021.2.3,Win32,61.2782646,,,,space,0.4814,,,,,,,,,,j,1,1.1086,,0,38,38,34,1,Numbers have an end,j,,,
,,,,,,,,7016,2022-04-06_19h19.10.908,ImplicitInfinitySC-SLOWTASK,2021.2.3,Win32,61.2782646,,,,space,0.2417,,,,,,,,,,f,1,1.0636,,0,39,39,69,1,Bacteria are alive,f,,,
,,,,,,,,7016,2022-04-06_19h19.10.908,ImplicitInfinitySC-SLOWTASK,2021.2.3,Win32,61.2782646,,,,space,2.2658,,,,,,,,,,j,1,2.288,space,0,40,40,64,1,Echoes are composed of matter,j,1.2563,,
,,,,,,,,7016,2022-04-06_19h19.10.908,ImplicitInfinitySC-SLOWTASK,2021.2.3,Win32,61.2782646,,,,space,1.0655,,,,,,,,,,j,1,1.698,,0,41,41,108,1,This sentence is written in Spanish,j,,,
,,,,,,,,7016,2022-04-06_19h19.10.908,ImplicitInfinitySC-SLOWTASK,2021.2.3,Win32,61.2782646,,,,space,1.3334,,,,,,,,,,f,0,1.2136,,0,42,42,86,1,Words have a molecular structure,j,,,
,,,,,,,,7016,2022-04-06_19h19.10.908,ImplicitInfinitySC-SLOWTASK,2021.2.3,Win32,61.2782646,,,,space,0.403,,,,,,,,,,f,1,1.0976,,0,43,43,49,1,Pelicans are alive,f,,,
,,,,,,,,7016,2022-04-06_19h19.10.908,ImplicitInfinitySC-SLOWTASK,2021.2.3,Win32,61.2782646,,,,space,0.4991,,,,,,,,,,j,1,3.0531,,0,44,44,63,1,Color can be put in a container,j,,,
,,,,,,,,7016,2022-04-06_19h19.10.908,ImplicitInfinitySC-SLOWTASK,2021.2.3,Win32,61.2782646,,,,space,0.4699,,,,,,,,,,j,1,0.8231,,0,45,45,120,1,A truck is an animal,j,,,
,,,,,,,,7016,2022-04-06_19h19.10.908,ImplicitInfinitySC-SLOWTASK,2021.2.3,Win32,61.2782646,,,,space,0.4494,,,,,,,,,,f,1,0.883,,0,46,46,100,1,A truck is a vehicle,f,,,
,,,,,,,,7016,2022-04-06_19h19.10.908,ImplicitInfinitySC-SLOWTASK,2021.2.3,Win32,61.2782646,,,,space,0.577,,,,,,,,,,j,1,2.1038,,0,47,47,24,1,Space is finite,j,,,
,,,,,,,,7016,2022-04-06_19h19.10.908,ImplicitInfinitySC-SLOWTASK,2021.2.3,Win32,61.2782646,,,,space,0.5033,,,,,,,,,,f,1,2.9651,,0,48,48,73,1,Bubbles can be put in a container,f,,,
,,,,,,,,7016,2022-04-06_19h19.10.908,ImplicitInfinitySC-SLOWTASK,2021.2.3,Win32,61.2782646,,,,space,0.6003,,,,,,,,,,j,1,1.5729,,0,49,49,5,1,A minute can go on forever,j,,,
,,,,,,,,7016,2022-04-06_19h19.10.908,ImplicitInfinitySC-SLOWTASK,2021.2.3,Win32,61.2782646,,,,space,0.4493,,,,,,,,,,j,1,1.9192,,0,50,50,30,1,Space cannot always be further divided,j,,,
,,,,,,,,7016,2022-04-06_19h19.10.908,ImplicitInfinitySC-SLOWTASK,2021.2.3,Win32,61.2782646,,,,space,0.39,,,,,,,,,,j,1,1.2971,,0,51,51,119,1,A motorcycle is a person,j,,,
,,,,,,,,7016,2022-04-06_19h19.10.908,ImplicitInfinitySC-SLOWTASK,2021.2.3,Win32,61.2782646,,,,space,0.4007,,,,,,,,,,j,1,1.1015,,0,52,52,13,1,An inch can go on forever,j,,,
,,,,,,,,7016,2022-04-06_19h19.10.908,ImplicitInfinitySC-SLOWTASK,2021.2.3,Win32,61.2782646,,,,space,0.8687,,,,,,,,,,f,1,1.038,,0,53,53,17,1,Time is infinite,f,,,
,,,,,,,,7016,2022-04-06_19h19.10.908,ImplicitInfinitySC-SLOWTASK,2021.2.3,Win32,61.2782646,,,,space,0.3663,,,,,,,,,,j,1,1.0663,,0,54,54,110,1,A triangle is an animal,j,,,
,,,,,,,,7016,2022-04-06_19h19.10.908,ImplicitInfinitySC-SLOWTASK,2021.2.3,Win32,61.2782646,,,,space,0.6829,,,,,,,,,,j,0,4.4941,,0,55,55,15,1,An inch can be always further divided,f,,,
,,,,,,,,7016,2022-04-06_19h19.10.908,ImplicitInfinitySC-SLOWTASK,2021.2.3,Win32,61.2782646,,,,space,0.3417,,,,,,,,,,j,1,0.8285,,0,56,56,58,1,Clocks are alive,j,,,
,,,,,,,,7016,2022-04-06_19h19.10.908,ImplicitInfinitySC-SLOWTASK,2021.2.3,Win32,61.2782646,,,,space,2.0865,,,,,,,,,,f,0,0.9355,,0,57,57,126,1,Humans can breathe water,j,,,
,,,,,,,,7016,2022-04-06_19h19.10.908,ImplicitInfinitySC-SLOWTASK,2021.2.3,Win32,61.2782646,,,,space,0.3813,,,,,,,,,,j,1,2.1649,,0,58,58,87,1,Dreams have a molecular structure,j,,,
,,,,,,,,7016,2022-04-06_19h19.10.908,ImplicitInfinitySC-SLOWTASK,2021.2.3,Win32,61.2782646,,,,space,0.465,,,,,,,,,,f,1,1.7661,,0,59,59,42,1,The number five has an end,f,,,
,,,,,,,,7016,2022-04-06_19h19.10.908,ImplicitInfinitySC-SLOWTASK,2021.2.3,Win32,61.2782646,,,,space,0.4835,,,,,,,,,,j,1,0.9844,,0,60,60,115,1,Yellow is an animal,j,,,
,,,,,,,,7016,2022-04-06_19h19.10.908,ImplicitInfinitySC-SLOWTASK,2021.2.3,Win32,61.2782646,,,,space,0.3888,,,,,,,,,,f,1,1.0479,,0,61,61,88,1,This sentence is written in English,f,,,
,,,,,,,,7016,2022-04-06_19h19.10.908,ImplicitInfinitySC-SLOWTASK,2021.2.3,Win32,61.2782646,,,,space,0.3977,,,,,,,,,,j,1,0.897,,0,62,62,122,1,The Earth is a star,j,,,
,,,,,,,,7016,2022-04-06_19h19.10.908,ImplicitInfinitySC-SLOWTASK,2021.2.3,Win32,61.2782646,,,,space,0.4051,,,,,,,,,,j,1,1.2887,,0,63,63,26,1,Space has an end,j,,,
,,,,,,,,7016,2022-04-06_19h19.10.908,ImplicitInfinitySC-SLOWTASK,2021.2.3,Win32,61.2782646,,,,space,0.4445,,,,,,,,,,j,1,1.4346,,0,64,64,9,1,An inch is infinite,j,,,
,,,,,,,,7016,2022-04-06_19h19.10.908,ImplicitInfinitySC-SLOWTASK,2021.2.3,Win32,61.2782646,,,,space,0.8389,,,,,,,,,,f,1,1.0996,,0,65,65,107,1,A pencil is used to write,f,,,
,,,,,,,,7016,2022-04-06_19h19.10.908,ImplicitInfinitySC-SLOWTASK,2021.2.3,Win32,61.2782646,,,,space,0.3324,,,,,,,,,,f,1,2.7778,,0,66,66,75,1,Frost is composed of matter,f,,,
,,,,,,,,7016,2022-04-06_19h19.10.908,ImplicitInfinitySC-SLOWTASK,2021.2.3,Win32,61.2782646,,,,space,0.6218,,,,,,,,,,f,1,1.7732,,0,67,67,33,1,Numbers are infinite,f,,,
,,,,,,,,7016,2022-04-06_19h19.10.908,ImplicitInfinitySC-SLOWTASK,2021.2.3,Win32,61.2782646,,,,space,0.5522,,,,,,,,,,f,1,1.1855,,0,68,68,99,1,A motorcycle is a vehicle,f,,,
,,,,,,,,7016,2022-04-06_19h19.10.908,ImplicitInfinitySC-SLOWTASK,2021.2.3,Win32,61.2782646,,,,space,0.5033,,,,,,,,,,j,1,1.2879,,0,69,69,65,1,Shadows are composed of matter,j,,,
,,,,,,,,7016,2022-04-06_19h19.10.908,ImplicitInfinitySC-SLOWTASK,2021.2.3,Win32,61.2782646,,,,space,0.4186,,,,,,,,,,f,1,1.065,,0,70,70,105,1,There are fifty states in the United States,f,,,
,,,,,,,,7016,2022-04-06_19h19.10.908,ImplicitInfinitySC-SLOWTASK,2021.2.3,Win32,61.2782646,,,,space,0.4726,,,,,,,,,,j,1,1.515,,0,71,71,114,1,Lightbulbs are made of clay,j,,,
,,,,,,,,7016,2022-04-06_19h19.10.908,ImplicitInfinitySC-SLOWTASK,2021.2.3,Win32,61.2782646,,,,space,0.4484,,,,,,,,,,f,1,1.5463,,0,72,72,40,1,The number five is finite,f,,,
,,,,,,,,7016,2022-04-06_19h19.10.908,ImplicitInfinitySC-SLOWTASK,2021.2.3,Win32,61.2782646,,,,space,0.4492,,,,,,,,,,f,1,0.9847,,0,73,73,92,1,Dinosaurs are extinct,f,,,
,,,,,,,,7016,2022-04-06_19h19.10.908,ImplicitInfinitySC-SLOWTASK,2021.2.3,Win32,61.2782646,,,,space,0.367,,,,,,,,,,f,1,2.3474,,0,74,74,53,1,Bricks can be put in a container,f,,,
,,,,,,,,7016,2022-04-06_19h19.10.908,ImplicitInfinitySC-SLOWTASK,2021.2.3,Win32,61.2782646,,,,space,0.4064,,,,,,,,,,f,1,0.8392,,0,75,75,95,1,Yellow is a color,f,,,
,,,,,,,,7016,2022-04-06_19h19.10.908,ImplicitInfinitySC-SLOWTASK,2021.2.3,Win32,61.2782646,,,,space,0.3658,,,,,,,,,,j,1,0.9215,,0,76,76,81,1,Tables reproduce,j,,,
,,,,,,,,7016,2022-04-06_19h19.10.908,ImplicitInfinitySC-SLOWTASK,2021.2.3,Win32,61.2782646,,,,space,0.5633,,,,,,,,,,f,1,1.9139,,0,77,77,23,1,Time can always be further divided,f,,,
,,,,,,,,7016,2022-04-06_19h19.10.908,ImplicitInfinitySC-SLOWTASK,2021.2.3,Win32,61.2782646,,,,space,0.3308,,,,,,,,,,f,1,0.7664,,0,78,78,93,1,Magenta is a color,f,,,
,,,,,,,,7016,2022-04-06_19h19.10.908,ImplicitInfinitySC-SLOWTASK,2021.2.3,Win32,61.2782646,,,,space,0.4537,,,,,,,,,,j,1,1.8697,,0,79,79,84,1,Silence is composed of matter,j,,,
,,,,,,,,7016,2022-04-06_19h19.10.908,ImplicitInfinitySC-SLOWTASK,2021.2.3,Win32,61.2782646,,,,space,0.3659,,,,,,,,,,j,1,0.9336,,0,80,80,79,1,Forks are alive,j,,,
,,,,,,,,7016,2022-04-06_19h19.10.908,ImplicitInfinitySC-SLOWTASK,2021.2.3,Win32,61.2782646,,,,,,,,,,,,,,,,,,,,,,,,,,,space,18.2921
