SlowInstrKey.keys,SlowInstrKey.rt,SlowInstrLoop.thisRepN,SlowInstrLoop.thisTrialN,SlowInstrLoop.thisN,SlowInstrLoop.thisIndex,SlowInstrLoop.ran,SlowInstructions,participant,date,expName,psychopyVersion,OS,frameRate,key_resp_5.keys,key_resp_5.corr,key_resp_5.rt,key_resp_4.keys,key_resp_4.rt,slowpracticeloop.thisRepN,slowpracticeloop.thisTrialN,slowpracticeloop.thisN,slowpracticeloop.thisIndex,slowpracticeloop.ran,practicetext,practicecorrect,key_resp_3.keys,key_resp_3.rt,SlowKey.keys,SlowKey.corr,SlowKey.rt,encouragekey.keys,SlowLoop.thisRepN,SlowLoop.thisTrialN,SlowLoop.thisN,SlowLoop.thisIndex,SlowLoop.ran,Statement,Correct,encouragekey.rt,endstudykey.keys,endstudykey.rt
space,5.5883,0,0,0,0,1,"You will be shown a total of 80 statements pertaining to mathematics, science, and social concepts. Your task is to determine whether each statement is true or false. Some statements will be difficult and some will be easier.  We do not expect you to know the correct answer for all 80 statements.  Press SPACE to Continue",7197,2022-04-06_17h57.39.528,ImplicitInfinitySC-SLOWTASK,2021.2.3,Win32,60.0348202,,,,,,,,,,,,,,,,,,,,,,,,,,,,
,,0,1,1,1,1,"We urge you to try your best and take your time. Each statement will appear on your screen and you will have 10 seconds to decide if it is true or false. You will hear a beep at 6 seconds that will prompt you to respond within the next 4 seconds. If you fail to respond within this time, the trial will be counted as incorrect and the next statement will appear. Press SPACE to continue",7197,2022-04-06_17h57.39.528,ImplicitInfinitySC-SLOWTASK,2021.2.3,Win32,60.0348202,,,,,,,,,,,,,,,,,,,,,,,,,,,,
space,1.4571,0,2,2,2,1,"If the statement is true, you will press the “F” key on your keyboard with your left pointer finger; if the statement is false, you will press the “J” key on your keyboard with your right pointer finger. Press SPACE to continue",7197,2022-04-06_17h57.39.528,ImplicitInfinitySC-SLOWTASK,2021.2.3,Win32,60.0348202,,,,,,,,,,,,,,,,,,,,,,,,,,,,
space,3.8406,0,3,3,3,1,Take your time and go slowly! You have 10 seconds to answer! Press SPACE to continue. ,7197,2022-04-06_17h57.39.528,ImplicitInfinitySC-SLOWTASK,2021.2.3,Win32,60.0348202,,,,,,,,,,,,,,,,,,,,,,,,,,,,
,,,,,,,,7197,2022-04-06_17h57.39.528,ImplicitInfinitySC-SLOWTASK,2021.2.3,Win32,60.0348202,f,1,1.1167,space,0.9498,0,0,0,2,1,Magenta is a color,f,,,,,,,,,,,,,,,,
,,,,,,,,7197,2022-04-06_17h57.39.528,ImplicitInfinitySC-SLOWTASK,2021.2.3,Win32,60.0348202,j,1,1.4308,space,0.8461,0,1,1,6,1,Jupiter is the planet we live on,j,,,,,,,,,,,,,,,,
,,,,,,,,7197,2022-04-06_17h57.39.528,ImplicitInfinitySC-SLOWTASK,2021.2.3,Win32,60.0348202,f,1,1.1067,space,0.5417,0,2,2,3,1,A clock is used to tell time,f,,,,,,,,,,,,,,,,
,,,,,,,,7197,2022-04-06_17h57.39.528,ImplicitInfinitySC-SLOWTASK,2021.2.3,Win32,60.0348202,f,1,1.5678,space,0.4617,0,3,3,1,1,Dinosaurs are extinct,f,,,,,,,,,,,,,,,,
,,,,,,,,7197,2022-04-06_17h57.39.528,ImplicitInfinitySC-SLOWTASK,2021.2.3,Win32,60.0348202,j,1,2.199,space,0.3041,0,4,4,9,1,Humans cannot eat food,j,,,,,,,,,,,,,,,,
,,,,,,,,7197,2022-04-06_17h57.39.528,ImplicitInfinitySC-SLOWTASK,2021.2.3,Win32,60.0348202,f,1,1.0056,space,0.3662,0,5,5,0,1,A circle is a shape,f,,,,,,,,,,,,,,,,
,,,,,,,,7197,2022-04-06_17h57.39.528,ImplicitInfinitySC-SLOWTASK,2021.2.3,Win32,60.0348202,f,0,1.5213,space,0.9137,0,6,6,8,1,Mississippi is a country,j,,,,,,,,,,,,,,,,
,,,,,,,,7197,2022-04-06_17h57.39.528,ImplicitInfinitySC-SLOWTASK,2021.2.3,Win32,60.0348202,j,1,1.2022,space,0.3961,0,7,7,7,1,The Earth is a star,j,,,,,,,,,,,,,,,,
,,,,,,,,7197,2022-04-06_17h57.39.528,ImplicitInfinitySC-SLOWTASK,2021.2.3,Win32,60.0348202,j,1,1.6175,space,0.2928,0,8,8,5,1,A truck is an animal,j,,,,,,,,,,,,,,,,
,,,,,,,,7197,2022-04-06_17h57.39.528,ImplicitInfinitySC-SLOWTASK,2021.2.3,Win32,60.0348202,f,1,1.7062,space,0.3058,0,9,9,4,1,Humans cannot breathe water,f,,,,,,,,,,,,,,,,
,,,,,,,,7197,2022-04-06_17h57.39.528,ImplicitInfinitySC-SLOWTASK,2021.2.3,Win32,60.0348202,,,,space,0.4543,,,,,,,,space,8.6668,f,1,1.5319,,0,0,0,29,1,Space can go on forever,f,,,
,,,,,,,,7197,2022-04-06_17h57.39.528,ImplicitInfinitySC-SLOWTASK,2021.2.3,Win32,60.0348202,,,,space,0.2831,,,,,,,,,,j,1,1.2492,,0,1,1,124,1,The president of the United States is Oprah,j,,,
,,,,,,,,7197,2022-04-06_17h57.39.528,ImplicitInfinitySC-SLOWTASK,2021.2.3,Win32,60.0348202,,,,space,0.3363,,,,,,,,,,f,1,1.6206,,0,2,2,0,1,A minute is finite,f,,,
,,,,,,,,7197,2022-04-06_17h57.39.528,ImplicitInfinitySC-SLOWTASK,2021.2.3,Win32,60.0348202,,,,space,0.3399,,,,,,,,,,j,1,1.0522,,0,3,3,59,1,Comets are alive,j,,,
,,,,,,,,7197,2022-04-06_17h57.39.528,ImplicitInfinitySC-SLOWTASK,2021.2.3,Win32,60.0348202,,,,space,0.3602,,,,,,,,,,j,1,1.7276,,0,4,4,86,1,Words have a molecular structure,j,,,
,,,,,,,,7197,2022-04-06_17h57.39.528,ImplicitInfinitySC-SLOWTASK,2021.2.3,Win32,60.0348202,,,,space,0.3051,,,,,,,,,,f,1,1.3904,,0,5,5,74,1,Foam is composed of matter,f,,,
,,,,,,,,7197,2022-04-06_17h57.39.528,ImplicitInfinitySC-SLOWTASK,2021.2.3,Win32,60.0348202,,,,space,0.2635,,,,,,,,,,j,1,2.5356,,0,6,6,6,1,A minute cannot always be further divided,j,,,
,,,,,,,,7197,2022-04-06_17h57.39.528,ImplicitInfinitySC-SLOWTASK,2021.2.3,Win32,60.0348202,,,,space,0.3425,,,,,,,,,,f,1,2.0382,,0,7,7,77,1,Saliva has a molecular structure,f,,,
,,,,,,,,7197,2022-04-06_17h57.39.528,ImplicitInfinitySC-SLOWTASK,2021.2.3,Win32,60.0348202,,,,space,0.3095,,,,,,,,,,j,1,1.328,,0,8,8,24,1,Space is finite,j,,,
,,,,,,,,7197,2022-04-06_17h57.39.528,ImplicitInfinitySC-SLOWTASK,2021.2.3,Win32,60.0348202,,,,space,0.32,,,,,,,,,,j,1,2.1753,,0,9,9,16,1,Time is finite,j,,,
,,,,,,,,7197,2022-04-06_17h57.39.528,ImplicitInfinitySC-SLOWTASK,2021.2.3,Win32,60.0348202,,,,space,0.2662,,,,,,,,,,f,1,1.7281,,0,10,10,97,1,Dolphins can swim in the ocean,f,,,
,,,,,,,,7197,2022-04-06_17h57.39.528,ImplicitInfinitySC-SLOWTASK,2021.2.3,Win32,60.0348202,,,,space,0.2383,,,,,,,,,,j,1,1.1222,,0,11,11,26,1,Space has an end,j,,,
,,,,,,,,7197,2022-04-06_17h57.39.528,ImplicitInfinitySC-SLOWTASK,2021.2.3,Win32,60.0348202,,,,space,0.2541,,,,,,,,,,f,0,3.7369,,0,12,12,45,1,The number five can go on forever,j,,,
,,,,,,,,7197,2022-04-06_17h57.39.528,ImplicitInfinitySC-SLOWTASK,2021.2.3,Win32,60.0348202,,,,space,0.2598,,,,,,,,,,j,1,1.3388,,0,13,13,34,1,Numbers have an end,j,,,
,,,,,,,,7197,2022-04-06_17h57.39.528,ImplicitInfinitySC-SLOWTASK,2021.2.3,Win32,60.0348202,,,,space,0.4222,,,,,,,,,,j,1,1.3202,,0,14,14,113,1,Magenta is a shape,j,,,
,,,,,,,,7197,2022-04-06_17h57.39.528,ImplicitInfinitySC-SLOWTASK,2021.2.3,Win32,60.0348202,,,,space,0.2952,,,,,,,,,,j,1,1.1297,,0,15,15,58,1,Clocks are alive,j,,,
,,,,,,,,7197,2022-04-06_17h57.39.528,ImplicitInfinitySC-SLOWTASK,2021.2.3,Win32,60.0348202,,,,space,0.2937,,,,,,,,,,j,1,1.8115,,0,16,16,85,1,Thoughts are composed of matter,j,,,
,,,,,,,,7197,2022-04-06_17h57.39.528,ImplicitInfinitySC-SLOWTASK,2021.2.3,Win32,60.0348202,,,,space,0.2457,,,,,,,,,,f,1,1.7682,,0,17,17,106,1,Humans cannot breathe water,f,,,
,,,,,,,,7197,2022-04-06_17h57.39.528,ImplicitInfinitySC-SLOWTASK,2021.2.3,Win32,60.0348202,,,,space,0.2776,,,,,,,,,,f,1,1.6014,,0,18,18,15,1,An inch can be always further divided,f,,,
,,,,,,,,7197,2022-04-06_17h57.39.528,ImplicitInfinitySC-SLOWTASK,2021.2.3,Win32,60.0348202,,,,space,0.2444,,,,,,,,,,f,1,1.8194,,0,19,19,101,1,Jupiter is in our solar system,f,,,
,,,,,,,,7197,2022-04-06_17h57.39.528,ImplicitInfinitySC-SLOWTASK,2021.2.3,Win32,60.0348202,,,,space,0.2114,,,,,,,,,,f,1,1.3249,,0,20,20,89,1,A square is a shape,f,,,
,,,,,,,,7197,2022-04-06_17h57.39.528,ImplicitInfinitySC-SLOWTASK,2021.2.3,Win32,60.0348202,,,,space,0.2275,,,,,,,,,,f,1,0.9621,,0,21,21,19,1,Time is endless,f,,,
,,,,,,,,7197,2022-04-06_17h57.39.528,ImplicitInfinitySC-SLOWTASK,2021.2.3,Win32,60.0348202,,,,space,0.2679,,,,,,,,,,j,0,1.4689,,0,22,22,44,1,The number five cannot go on forever,f,,,
,,,,,,,,7197,2022-04-06_17h57.39.528,ImplicitInfinitySC-SLOWTASK,2021.2.3,Win32,60.0348202,,,,space,0.2186,,,,,,,,,,j,1,2.0056,,0,23,23,109,1,A square is a color,j,,,
,,,,,,,,7197,2022-04-06_17h57.39.528,ImplicitInfinitySC-SLOWTASK,2021.2.3,Win32,60.0348202,,,,space,0.1895,,,,,,,,,,f,1,1.1379,,0,24,24,76,1,Pollen has a molecular structure,f,,,
,,,,,,,,7197,2022-04-06_17h57.39.528,ImplicitInfinitySC-SLOWTASK,2021.2.3,Win32,60.0348202,,,,space,0.226,,,,,,,,,,f,0,0.9421,,0,25,25,3,1,A minute is endless,j,,,
,,,,,,,,7197,2022-04-06_17h57.39.528,ImplicitInfinitySC-SLOWTASK,2021.2.3,Win32,60.0348202,,,,space,0.2581,,,,,,,,,,j,1,2.5364,,0,26,26,81,1,Tables reproduce,j,,,
,,,,,,,,7197,2022-04-06_17h57.39.528,ImplicitInfinitySC-SLOWTASK,2021.2.3,Win32,60.0348202,,,,space,0.2175,,,,,,,,,,f,1,1.8903,,0,27,27,91,1,A circle is a shape,f,,,
,,,,,,,,7197,2022-04-06_17h57.39.528,ImplicitInfinitySC-SLOWTASK,2021.2.3,Win32,60.0348202,,,,space,0.2159,,,,,,,,,,j,1,1.4355,,0,28,28,115,1,Yellow is an animal,j,,,
,,,,,,,,7197,2022-04-06_17h57.39.528,ImplicitInfinitySC-SLOWTASK,2021.2.3,Win32,60.0348202,,,,space,0.1763,,,,,,,,,,f,1,0.933,,0,29,29,95,1,Yellow is a color,f,,,
,,,,,,,,7197,2022-04-06_17h57.39.528,ImplicitInfinitySC-SLOWTASK,2021.2.3,Win32,60.0348202,,,,space,0.1838,,,,,,,,,,f,1,1.1555,,0,30,30,55,1,Concrete is composed of matter,f,,,
,,,,,,,,7197,2022-04-06_17h57.39.528,ImplicitInfinitySC-SLOWTASK,2021.2.3,Win32,60.0348202,,,,space,0.2193,,,,,,,,,,j,1,1.7085,,0,31,31,63,1,Color can be put in a container,j,,,
,,,,,,,,7197,2022-04-06_17h57.39.528,ImplicitInfinitySC-SLOWTASK,2021.2.3,Win32,60.0348202,,,,space,0.2305,,,,,,,,,,j,1,1.6349,,0,32,32,122,1,The Earth is a star,j,,,
,,,,,,,,7197,2022-04-06_17h57.39.528,ImplicitInfinitySC-SLOWTASK,2021.2.3,Win32,60.0348202,,,,space,0.1983,,,,,,,,,,f,1,2.4548,,0,33,33,75,1,Frost is composed of matter,f,,,
,,,,,,,,7197,2022-04-06_17h57.39.528,ImplicitInfinitySC-SLOWTASK,2021.2.3,Win32,60.0348202,,,,space,0.1827,,,,,,,,,,j,1,1.3231,,0,34,34,20,1,Time cannot go on forever,j,,,
,,,,,,,,7197,2022-04-06_17h57.39.528,ImplicitInfinitySC-SLOWTASK,2021.2.3,Win32,60.0348202,,,,space,0.1943,,,,,,,,,,j,1,1.638,,0,35,35,108,1,This sentence is written in Spanish,j,,,
,,,,,,,,7197,2022-04-06_17h57.39.528,ImplicitInfinitySC-SLOWTASK,2021.2.3,Win32,60.0348202,,,,space,0.1673,,,,,,,,,,j,1,2.0203,,0,36,36,125,1,There are ninty states in the United States,j,,,
,,,,,,,,7197,2022-04-06_17h57.39.528,ImplicitInfinitySC-SLOWTASK,2021.2.3,Win32,60.0348202,,,,space,0.2347,,,,,,,,,,j,1,1.5416,,0,37,37,114,1,Lightbulbs are made of clay,j,,,
,,,,,,,,7197,2022-04-06_17h57.39.528,ImplicitInfinitySC-SLOWTASK,2021.2.3,Win32,60.0348202,,,,space,0.2345,,,,,,,,,,j,1,1.3185,,0,38,38,79,1,Forks are alive,j,,,
,,,,,,,,7197,2022-04-06_17h57.39.528,ImplicitInfinitySC-SLOWTASK,2021.2.3,Win32,60.0348202,,,,space,0.1932,,,,,,,,,,f,1,1.4073,,0,39,39,17,1,Time is infinite,f,,,
,,,,,,,,7197,2022-04-06_17h57.39.528,ImplicitInfinitySC-SLOWTASK,2021.2.3,Win32,60.0348202,,,,space,0.8889,,,,,,,,,,j,1,0.787,space,0,40,40,18,1,Time has an end,j,0.5321,,
,,,,,,,,7197,2022-04-06_17h57.39.528,ImplicitInfinitySC-SLOWTASK,2021.2.3,Win32,60.0348202,,,,space,0.1754,,,,,,,,,,f,1,1.2983,,0,41,41,102,1,The Earth is a planet,f,,,
,,,,,,,,7197,2022-04-06_17h57.39.528,ImplicitInfinitySC-SLOWTASK,2021.2.3,Win32,60.0348202,,,,space,0.1804,,,,,,,,,,j,1,1.3007,,0,42,42,119,1,A motorcycle is a person,j,,,
,,,,,,,,7197,2022-04-06_17h57.39.528,ImplicitInfinitySC-SLOWTASK,2021.2.3,Win32,60.0348202,,,,space,0.2032,,,,,,,,,,j,1,1.2881,,0,43,43,80,1,Mittens need nutrients,j,,,
,,,,,,,,7197,2022-04-06_17h57.39.528,ImplicitInfinitySC-SLOWTASK,2021.2.3,Win32,60.0348202,,,,space,0.1958,,,,,,,,,,j,1,1.39,,0,44,44,123,1,Mississippi is a country,j,,,
,,,,,,,,7197,2022-04-06_17h57.39.528,ImplicitInfinitySC-SLOWTASK,2021.2.3,Win32,60.0348202,,,,space,0.1541,,,,,,,,,,f,1,1.0365,,0,45,45,52,1,Frogs reproduce,f,,,
,,,,,,,,7197,2022-04-06_17h57.39.528,ImplicitInfinitySC-SLOWTASK,2021.2.3,Win32,60.0348202,,,,space,0.1836,,,,,,,,,,f,1,1.0903,,0,46,46,68,1,Algae is alive,f,,,
,,,,,,,,7197,2022-04-06_17h57.39.528,ImplicitInfinitySC-SLOWTASK,2021.2.3,Win32,60.0348202,,,,space,0.2338,,,,,,,,,,f,1,1.2341,,0,47,47,33,1,Numbers are infinite,f,,,
,,,,,,,,7197,2022-04-06_17h57.39.528,ImplicitInfinitySC-SLOWTASK,2021.2.3,Win32,60.0348202,,,,space,0.2118,,,,,,,,,,j,1,1.4441,,0,48,48,38,1,Numbers cannot always be further divided,j,,,
,,,,,,,,7197,2022-04-06_17h57.39.528,ImplicitInfinitySC-SLOWTASK,2021.2.3,Win32,60.0348202,,,,space,0.2053,,,,,,,,,,j,0,4.7162,,0,49,49,12,1,An inch cannot go on forever,f,,,
,,,,,,,,7197,2022-04-06_17h57.39.528,ImplicitInfinitySC-SLOWTASK,2021.2.3,Win32,60.0348202,,,,space,0.2714,,,,,,,,,,f,0,1.8032,,0,50,50,43,1,The number five is endless,j,,,
,,,,,,,,7197,2022-04-06_17h57.39.528,ImplicitInfinitySC-SLOWTASK,2021.2.3,Win32,60.0348202,,,,space,0.193,,,,,,,,,,j,1,3.4228,,0,51,51,82,1,Stones reproduce,j,,,
,,,,,,,,7197,2022-04-06_17h57.39.528,ImplicitInfinitySC-SLOWTASK,2021.2.3,Win32,60.0348202,,,,space,0.1613,,,,,,,,,,j,1,1.5707,,0,52,52,117,1,Dolphins cannot swim in the ocean,j,,,
,,,,,,,,7197,2022-04-06_17h57.39.528,ImplicitInfinitySC-SLOWTASK,2021.2.3,Win32,60.0348202,,,,space,0.1681,,,,,,,,,,j,1,1.2812,,0,53,53,32,1,Numbers are finite,j,,,
,,,,,,,,7197,2022-04-06_17h57.39.528,ImplicitInfinitySC-SLOWTASK,2021.2.3,Win32,60.0348202,,,,space,0.1622,,,,,,,,,,f,1,1.7914,,0,54,54,98,1,A clock is used to tell time,f,,,
,,,,,,,,7197,2022-04-06_17h57.39.528,ImplicitInfinitySC-SLOWTASK,2021.2.3,Win32,60.0348202,,,,space,0.1682,,,,,,,,,,j,1,0.9521,,0,55,55,61,1,Sailboats reproduce,j,,,
,,,,,,,,7197,2022-04-06_17h57.39.528,ImplicitInfinitySC-SLOWTASK,2021.2.3,Win32,60.0348202,,,,space,0.2015,,,,,,,,,,f,1,1.4009,,0,56,56,69,1,Bacteria are alive,f,,,
,,,,,,,,7197,2022-04-06_17h57.39.528,ImplicitInfinitySC-SLOWTASK,2021.2.3,Win32,60.0348202,,,,space,0.1994,,,,,,,,,,j,1,1.1565,,0,57,57,121,1,Jupiter is the planet we live on,j,,,
,,,,,,,,7197,2022-04-06_17h57.39.528,ImplicitInfinitySC-SLOWTASK,2021.2.3,Win32,60.0348202,,,,space,0.2317,,,,,,,,,,f,1,2.8394,,0,58,58,53,1,Bricks can be put in a container,f,,,
,,,,,,,,7197,2022-04-06_17h57.39.528,ImplicitInfinitySC-SLOWTASK,2021.2.3,Win32,60.0348202,,,,space,0.1904,,,,,,,,,,f,1,0.9678,,0,59,59,107,1,A pencil is used to write,f,,,
,,,,,,,,7197,2022-04-06_17h57.39.528,ImplicitInfinitySC-SLOWTASK,2021.2.3,Win32,60.0348202,,,,space,0.1744,,,,,,,,,,j,1,1.1709,,0,60,60,84,1,Silence is composed of matter,j,,,
,,,,,,,,7197,2022-04-06_17h57.39.528,ImplicitInfinitySC-SLOWTASK,2021.2.3,Win32,60.0348202,,,,space,0.1836,,,,,,,,,,j,1,1.6226,,0,61,61,110,1,A triangle is an animal,j,,,
,,,,,,,,7197,2022-04-06_17h57.39.528,ImplicitInfinitySC-SLOWTASK,2021.2.3,Win32,60.0348202,,,,space,0.1842,,,,,,,,,,f,1,0.9504,,0,62,62,90,1,A triangle is not an animal,f,,,
,,,,,,,,7197,2022-04-06_17h57.39.528,ImplicitInfinitySC-SLOWTASK,2021.2.3,Win32,60.0348202,,,,space,0.1838,,,,,,,,,,f,1,0.9196,,0,63,63,48,1,Crocodiles are alive,f,,,
,,,,,,,,7197,2022-04-06_17h57.39.528,ImplicitInfinitySC-SLOWTASK,2021.2.3,Win32,60.0348202,,,,space,0.1944,,,,,,,,,,j,1,1.4488,,0,64,64,65,1,Shadows are composed of matter,j,,,
,,,,,,,,7197,2022-04-06_17h57.39.528,ImplicitInfinitySC-SLOWTASK,2021.2.3,Win32,60.0348202,,,,space,0.2091,,,,,,,,,,f,1,1.1781,,0,65,65,37,1,Numbers can go on forever,f,,,
,,,,,,,,7197,2022-04-06_17h57.39.528,ImplicitInfinitySC-SLOWTASK,2021.2.3,Win32,60.0348202,,,,space,0.1688,,,,,,,,,,f,1,1.259,,0,66,66,104,1,The United States has a president,f,,,
,,,,,,,,7197,2022-04-06_17h57.39.528,ImplicitInfinitySC-SLOWTASK,2021.2.3,Win32,60.0348202,,,,space,0.217,,,,,,,,,,f,1,1.829,,0,67,67,56,1,Diamonds have a molecular structure,f,,,
,,,,,,,,7197,2022-04-06_17h57.39.528,ImplicitInfinitySC-SLOWTASK,2021.2.3,Win32,60.0348202,,,,space,0.267,,,,,,,,,,j,1,1.0791,,0,68,68,66,1,Music has a molecular structure,j,,,
,,,,,,,,7197,2022-04-06_17h57.39.528,ImplicitInfinitySC-SLOWTASK,2021.2.3,Win32,60.0348202,,,,space,0.2362,,,,,,,,,,f,1,1.0693,,0,69,69,31,1,Space can always be further divided,f,,,
,,,,,,,,7197,2022-04-06_17h57.39.528,ImplicitInfinitySC-SLOWTASK,2021.2.3,Win32,60.0348202,,,,space,0.2137,,,,,,,,,,f,1,1.2066,,0,70,70,88,1,This sentence is written in English,f,,,
,,,,,,,,7197,2022-04-06_17h57.39.528,ImplicitInfinitySC-SLOWTASK,2021.2.3,Win32,60.0348202,,,,space,0.2029,,,,,,,,,,j,1,0.9867,,0,71,71,111,1,A circle is a flavor,j,,,
,,,,,,,,7197,2022-04-06_17h57.39.528,ImplicitInfinitySC-SLOWTASK,2021.2.3,Win32,60.0348202,,,,space,0.2135,,,,,,,,,,j,1,1.2253,,0,72,72,118,1,A horse is used to tell time,j,,,
,,,,,,,,7197,2022-04-06_17h57.39.528,ImplicitInfinitySC-SLOWTASK,2021.2.3,Win32,60.0348202,,,,space,0.2016,,,,,,,,,,f,1,1.0396,,0,73,73,103,1,The United States is a country,f,,,
,,,,,,,,7197,2022-04-06_17h57.39.528,ImplicitInfinitySC-SLOWTASK,2021.2.3,Win32,60.0348202,,,,space,0.2049,,,,,,,,,,j,1,1.4496,,0,74,74,14,1,An inch cannot always be further divided,j,,,
,,,,,,,,7197,2022-04-06_17h57.39.528,ImplicitInfinitySC-SLOWTASK,2021.2.3,Win32,60.0348202,,,,space,0.1808,,,,,,,,,,j,1,2.6323,,0,75,75,112,1,Dinosaurs are not extinct,j,,,
,,,,,,,,7197,2022-04-06_17h57.39.528,ImplicitInfinitySC-SLOWTASK,2021.2.3,Win32,60.0348202,,,,space,0.2293,,,,,,,,,,f,0,1.9284,,0,76,76,9,1,An inch is infinite,j,,,
,,,,,,,,7197,2022-04-06_17h57.39.528,ImplicitInfinitySC-SLOWTASK,2021.2.3,Win32,60.0348202,,,,space,0.2139,,,,,,,,,,f,0,1.0171,,0,77,77,1,1,A minute is infinite,j,,,
,,,,,,,,7197,2022-04-06_17h57.39.528,ImplicitInfinitySC-SLOWTASK,2021.2.3,Win32,60.0348202,,,,space,0.1973,,,,,,,,,,j,1,2.4648,,0,78,78,22,1,Time cannot always be further divided,j,,,
,,,,,,,,7197,2022-04-06_17h57.39.528,ImplicitInfinitySC-SLOWTASK,2021.2.3,Win32,60.0348202,,,,space,0.2062,,,,,,,,,,f,0,1.4111,,0,79,79,41,1,The number five is infinite,j,,,
,,,,,,,,7197,2022-04-06_17h57.39.528,ImplicitInfinitySC-SLOWTASK,2021.2.3,Win32,60.0348202,,,,space,0.1799,,,,,,,,,,f,1,4.3347,,0,80,80,4,1,A minute cannot go on forever,f,,,
,,,,,,,,7197,2022-04-06_17h57.39.528,ImplicitInfinitySC-SLOWTASK,2021.2.3,Win32,60.0348202,,,,,,,,,,,,,,,,,,,,,,,,,,,space,7.7728
