SlowInstrKey.keys,SlowInstrKey.rt,SlowInstrLoop.thisRepN,SlowInstrLoop.thisTrialN,SlowInstrLoop.thisN,SlowInstrLoop.thisIndex,SlowInstrLoop.ran,SlowInstructions,participant,date,expName,psychopyVersion,OS,frameRate,key_resp_5.keys,key_resp_5.corr,key_resp_5.rt,key_resp_4.keys,key_resp_4.rt,slowpracticeloop.thisRepN,slowpracticeloop.thisTrialN,slowpracticeloop.thisN,slowpracticeloop.thisIndex,slowpracticeloop.ran,practicetext,practicecorrect,key_resp_3.keys,key_resp_3.rt,SlowKey.keys,SlowKey.corr,SlowKey.rt,encouragekey.keys,SlowLoop.thisRepN,SlowLoop.thisTrialN,SlowLoop.thisN,SlowLoop.thisIndex,SlowLoop.ran,Statement,Correct,encouragekey.rt,endstudykey.keys,endstudykey.rt
space,7.1899,0,0,0,0,1,"You will be shown a total of 80 statements pertaining to mathematics, science, and social concepts. Your task is to determine whether each statement is true or false. Some statements will be difficult and some will be easier.  We do not expect you to know the correct answer for all 80 statements.  Press SPACE to Continue",7762,2022-04-06_18h57.36.285,ImplicitInfinitySC-SLOWTASK,2021.2.3,Win32,119.9616123,,,,,,,,,,,,,,,,,,,,,,,,,,,,
space,8.9614,0,1,1,1,1,"We urge you to try your best and take your time. Each statement will appear on your screen and you will have 10 seconds to decide if it is true or false. You will hear a beep at 6 seconds that will prompt you to respond within the next 4 seconds. If you fail to respond within this time, the trial will be counted as incorrect and the next statement will appear. Press SPACE to continue",7762,2022-04-06_18h57.36.285,ImplicitInfinitySC-SLOWTASK,2021.2.3,Win32,119.9616123,,,,,,,,,,,,,,,,,,,,,,,,,,,,
space,15.1444,0,2,2,2,1,"If the statement is true, you will press the “F” key on your keyboard with your left pointer finger; if the statement is false, you will press the “J” key on your keyboard with your right pointer finger. Press SPACE to continue",7762,2022-04-06_18h57.36.285,ImplicitInfinitySC-SLOWTASK,2021.2.3,Win32,119.9616123,,,,,,,,,,,,,,,,,,,,,,,,,,,,
space,1.4839,0,3,3,3,1,Take your time and go slowly! You have 10 seconds to answer! Press SPACE to continue. ,7762,2022-04-06_18h57.36.285,ImplicitInfinitySC-SLOWTASK,2021.2.3,Win32,119.9616123,,,,,,,,,,,,,,,,,,,,,,,,,,,,
,,,,,,,,7762,2022-04-06_18h57.36.285,ImplicitInfinitySC-SLOWTASK,2021.2.3,Win32,119.9616123,f,1,3.2604,space,1.9272,0,0,0,4,1,Humans cannot breathe water,f,,,,,,,,,,,,,,,,
,,,,,,,,7762,2022-04-06_18h57.36.285,ImplicitInfinitySC-SLOWTASK,2021.2.3,Win32,119.9616123,f,1,3.2502,space,0.5509,0,1,1,3,1,A clock is used to tell time,f,,,,,,,,,,,,,,,,
,,,,,,,,7762,2022-04-06_18h57.36.285,ImplicitInfinitySC-SLOWTASK,2021.2.3,Win32,119.9616123,j,1,1.8508,space,0.4962,0,2,2,5,1,A truck is an animal,j,,,,,,,,,,,,,,,,
,,,,,,,,7762,2022-04-06_18h57.36.285,ImplicitInfinitySC-SLOWTASK,2021.2.3,Win32,119.9616123,f,1,2.0278,space,0.4935,0,3,3,2,1,Magenta is a color,f,,,,,,,,,,,,,,,,
,,,,,,,,7762,2022-04-06_18h57.36.285,ImplicitInfinitySC-SLOWTASK,2021.2.3,Win32,119.9616123,j,1,1.5981,space,0.447,0,4,4,7,1,The Earth is a star,j,,,,,,,,,,,,,,,,
,,,,,,,,7762,2022-04-06_18h57.36.285,ImplicitInfinitySC-SLOWTASK,2021.2.3,Win32,119.9616123,j,1,2.307,space,0.592,0,5,5,8,1,Mississippi is a country,j,,,,,,,,,,,,,,,,
,,,,,,,,7762,2022-04-06_18h57.36.285,ImplicitInfinitySC-SLOWTASK,2021.2.3,Win32,119.9616123,f,1,1.9936,space,0.6503,0,6,6,1,1,Dinosaurs are extinct,f,,,,,,,,,,,,,,,,
,,,,,,,,7762,2022-04-06_18h57.36.285,ImplicitInfinitySC-SLOWTASK,2021.2.3,Win32,119.9616123,j,1,1.8835,space,0.5256,0,7,7,6,1,Jupiter is the planet we live on,j,,,,,,,,,,,,,,,,
,,,,,,,,7762,2022-04-06_18h57.36.285,ImplicitInfinitySC-SLOWTASK,2021.2.3,Win32,119.9616123,f,1,1.8873,space,0.4945,0,8,8,0,1,A circle is a shape,f,,,,,,,,,,,,,,,,
,,,,,,,,7762,2022-04-06_18h57.36.285,ImplicitInfinitySC-SLOWTASK,2021.2.3,Win32,119.9616123,j,1,3.1592,space,0.6629,0,9,9,9,1,Humans cannot eat food,j,,,,,,,,,,,,,,,,
,,,,,,,,7762,2022-04-06_18h57.36.285,ImplicitInfinitySC-SLOWTASK,2021.2.3,Win32,119.9616123,,,,space,0.5174,,,,,,,,space,4.668,j,1,1.8271,,0,0,0,11,1,An inch is endless,j,,,
,,,,,,,,7762,2022-04-06_18h57.36.285,ImplicitInfinitySC-SLOWTASK,2021.2.3,Win32,119.9616123,,,,space,0.4546,,,,,,,,,,f,1,1.2758,,0,1,1,51,1,Tigers reproduce,f,,,
,,,,,,,,7762,2022-04-06_18h57.36.285,ImplicitInfinitySC-SLOWTASK,2021.2.3,Win32,119.9616123,,,,space,0.4022,,,,,,,,,,f,1,2.2445,,0,2,2,105,1,There are fifty states in the United States,f,,,
,,,,,,,,7762,2022-04-06_18h57.36.285,ImplicitInfinitySC-SLOWTASK,2021.2.3,Win32,119.9616123,,,,space,0.6085,,,,,,,,,,j,1,2.5754,,0,3,3,36,1,Numbers cannot go on forever,j,,,
,,,,,,,,7762,2022-04-06_18h57.36.285,ImplicitInfinitySC-SLOWTASK,2021.2.3,Win32,119.9616123,,,,space,0.4367,,,,,,,,,,f,1,2.2755,,0,4,4,75,1,Frost is composed of matter,f,,,
,,,,,,,,7762,2022-04-06_18h57.36.285,ImplicitInfinitySC-SLOWTASK,2021.2.3,Win32,119.9616123,,,,space,0.4837,,,,,,,,,,f,1,2.4667,,0,5,5,19,1,Time is endless,f,,,
,,,,,,,,7762,2022-04-06_18h57.36.285,ImplicitInfinitySC-SLOWTASK,2021.2.3,Win32,119.9616123,,,,space,0.4373,,,,,,,,,,j,1,3.8836,,0,6,6,6,1,A minute cannot always be further divided,j,,,
,,,,,,,,7762,2022-04-06_18h57.36.285,ImplicitInfinitySC-SLOWTASK,2021.2.3,Win32,119.9616123,,,,space,0.492,,,,,,,,,,f,1,2.7519,,0,7,7,25,1,Space is infinite,f,,,
,,,,,,,,7762,2022-04-06_18h57.36.285,ImplicitInfinitySC-SLOWTASK,2021.2.3,Win32,119.9616123,,,,space,0.9673,,,,,,,,,,j,1,1.9587,,0,8,8,3,1,A minute is endless,j,,,
,,,,,,,,7762,2022-04-06_18h57.36.285,ImplicitInfinitySC-SLOWTASK,2021.2.3,Win32,119.9616123,,,,space,0.5921,,,,,,,,,,j,1,2.142,,0,9,9,111,1,A circle is a flavor,j,,,
,,,,,,,,7762,2022-04-06_18h57.36.285,ImplicitInfinitySC-SLOWTASK,2021.2.3,Win32,119.9616123,,,,space,0.4517,,,,,,,,,,f,1,1.6437,,0,10,10,70,1,Grass needs nutrients,f,,,
,,,,,,,,7762,2022-04-06_18h57.36.285,ImplicitInfinitySC-SLOWTASK,2021.2.3,Win32,119.9616123,,,,space,0.5947,,,,,,,,,,j,1,3.2503,,0,11,11,125,1,There are ninty states in the United States,j,,,
,,,,,,,,7762,2022-04-06_18h57.36.285,ImplicitInfinitySC-SLOWTASK,2021.2.3,Win32,119.9616123,,,,space,0.6502,,,,,,,,,,j,1,1.9753,,0,12,12,26,1,Space has an end,j,,,
,,,,,,,,7762,2022-04-06_18h57.36.285,ImplicitInfinitySC-SLOWTASK,2021.2.3,Win32,119.9616123,,,,space,0.7015,,,,,,,,,,f,1,2.2669,,0,13,13,15,1,An inch can be always further divided,f,,,
,,,,,,,,7762,2022-04-06_18h57.36.285,ImplicitInfinitySC-SLOWTASK,2021.2.3,Win32,119.9616123,,,,space,0.6019,,,,,,,,,,j,1,2.5674,,0,14,14,85,1,Thoughts are composed of matter,j,,,
,,,,,,,,7762,2022-04-06_18h57.36.285,ImplicitInfinitySC-SLOWTASK,2021.2.3,Win32,119.9616123,,,,space,0.6281,,,,,,,,,,j,1,1.3588,,0,15,15,113,1,Magenta is a shape,j,,,
,,,,,,,,7762,2022-04-06_18h57.36.285,ImplicitInfinitySC-SLOWTASK,2021.2.3,Win32,119.9616123,,,,space,0.5336,,,,,,,,,,f,1,1.6586,,0,16,16,37,1,Numbers can go on forever,f,,,
,,,,,,,,7762,2022-04-06_18h57.36.285,ImplicitInfinitySC-SLOWTASK,2021.2.3,Win32,119.9616123,,,,space,0.5672,,,,,,,,,,j,1,1.4775,,0,17,17,5,1,A minute can go on forever,j,,,
,,,,,,,,7762,2022-04-06_18h57.36.285,ImplicitInfinitySC-SLOWTASK,2021.2.3,Win32,119.9616123,,,,space,0.4919,,,,,,,,,,f,1,1.8669,,0,18,18,97,1,Dolphins can swim in the ocean,f,,,
,,,,,,,,7762,2022-04-06_18h57.36.285,ImplicitInfinitySC-SLOWTASK,2021.2.3,Win32,119.9616123,,,,space,0.4755,,,,,,,,,,j,1,1.1703,,0,19,19,115,1,Yellow is an animal,j,,,
,,,,,,,,7762,2022-04-06_18h57.36.285,ImplicitInfinitySC-SLOWTASK,2021.2.3,Win32,119.9616123,,,,space,0.417,,,,,,,,,,j,1,1.1338,,0,20,20,78,1,Hammers are alive,j,,,
,,,,,,,,7762,2022-04-06_18h57.36.285,ImplicitInfinitySC-SLOWTASK,2021.2.3,Win32,119.9616123,,,,space,0.6922,,,,,,,,,,f,1,2.2752,,0,21,21,57,1,Rocks have a molecular structure,f,,,
,,,,,,,,7762,2022-04-06_18h57.36.285,ImplicitInfinitySC-SLOWTASK,2021.2.3,Win32,119.9616123,,,,space,0.5199,,,,,,,,,,j,1,3.1174,,0,22,22,117,1,Dolphins cannot swim in the ocean,j,,,
,,,,,,,,7762,2022-04-06_18h57.36.285,ImplicitInfinitySC-SLOWTASK,2021.2.3,Win32,119.9616123,,,,space,0.5268,,,,,,,,,,j,1,3.8427,,0,23,23,116,1,Fish cannot swim in the ocean,j,,,
,,,,,,,,7762,2022-04-06_18h57.36.285,ImplicitInfinitySC-SLOWTASK,2021.2.3,Win32,119.9616123,,,,space,0.4506,,,,,,,,,,j,1,1.2252,,0,24,24,62,1,Helicopters reproduce,j,,,
,,,,,,,,7762,2022-04-06_18h57.36.285,ImplicitInfinitySC-SLOWTASK,2021.2.3,Win32,119.9616123,,,,space,0.4505,,,,,,,,,,f,1,3.7515,,0,25,25,44,1,The number five cannot go on forever,f,,,
,,,,,,,,7762,2022-04-06_18h57.36.285,ImplicitInfinitySC-SLOWTASK,2021.2.3,Win32,119.9616123,,,,space,0.3435,,,,,,,,,,j,1,1.482,,0,26,26,60,1,Robots need nutrients,j,,,
,,,,,,,,7762,2022-04-06_18h57.36.285,ImplicitInfinitySC-SLOWTASK,2021.2.3,Win32,119.9616123,,,,space,0.592,,,,,,,,,,f,1,2.1996,,0,27,27,72,1,Mushrooms reproduce,f,,,
,,,,,,,,7762,2022-04-06_18h57.36.285,ImplicitInfinitySC-SLOWTASK,2021.2.3,Win32,119.9616123,,,,space,0.4006,,,,,,,,,,j,1,2.7658,,0,28,28,108,1,This sentence is written in Spanish,j,,,
,,,,,,,,7762,2022-04-06_18h57.36.285,ImplicitInfinitySC-SLOWTASK,2021.2.3,Win32,119.9616123,,,,space,0.3675,,,,,,,,,,j,1,1.6573,,0,29,29,79,1,Forks are alive,j,,,
,,,,,,,,7762,2022-04-06_18h57.36.285,ImplicitInfinitySC-SLOWTASK,2021.2.3,Win32,119.9616123,,,,space,0.4257,,,,,,,,,,f,1,0.9413,,0,30,30,94,1,Orange is a color,f,,,
,,,,,,,,7762,2022-04-06_18h57.36.285,ImplicitInfinitySC-SLOWTASK,2021.2.3,Win32,119.9616123,,,,space,0.5592,,,,,,,,,,f,1,3.2573,,0,31,31,53,1,Bricks can be put in a container,f,,,
,,,,,,,,7762,2022-04-06_18h57.36.285,ImplicitInfinitySC-SLOWTASK,2021.2.3,Win32,119.9616123,,,,space,0.4606,,,,,,,,,,j,1,1.6624,,0,32,32,87,1,Dreams have a molecular structure,j,,,
,,,,,,,,7762,2022-04-06_18h57.36.285,ImplicitInfinitySC-SLOWTASK,2021.2.3,Win32,119.9616123,,,,space,0.4419,,,,,,,,,,j,1,2.0505,,0,33,33,64,1,Echoes are composed of matter,j,,,
,,,,,,,,7762,2022-04-06_18h57.36.285,ImplicitInfinitySC-SLOWTASK,2021.2.3,Win32,119.9616123,,,,space,0.4172,,,,,,,,,,j,1,1.2852,,0,34,34,34,1,Numbers have an end,j,,,
,,,,,,,,7762,2022-04-06_18h57.36.285,ImplicitInfinitySC-SLOWTASK,2021.2.3,Win32,119.9616123,,,,space,0.5253,,,,,,,,,,f,1,3.3588,,0,35,35,39,1,Numbers can always be further divided,f,,,
,,,,,,,,7762,2022-04-06_18h57.36.285,ImplicitInfinitySC-SLOWTASK,2021.2.3,Win32,119.9616123,,,,space,0.4607,,,,,,,,,,f,1,1.1212,,0,36,36,17,1,Time is infinite,f,,,
,,,,,,,,7762,2022-04-06_18h57.36.285,ImplicitInfinitySC-SLOWTASK,2021.2.3,Win32,119.9616123,,,,space,0.4183,,,,,,,,,,f,1,1.3836,,0,37,37,35,1,Numbers are endless,f,,,
,,,,,,,,7762,2022-04-06_18h57.36.285,ImplicitInfinitySC-SLOWTASK,2021.2.3,Win32,119.9616123,,,,space,0.5844,,,,,,,,,,j,1,1.7783,,0,38,38,123,1,Mississippi is a country,j,,,
,,,,,,,,7762,2022-04-06_18h57.36.285,ImplicitInfinitySC-SLOWTASK,2021.2.3,Win32,119.9616123,,,,space,0.8086,,,,,,,,,,j,1,3.4922,,0,39,39,63,1,Color can be put in a container,j,,,
,,,,,,,,7762,2022-04-06_18h57.36.285,ImplicitInfinitySC-SLOWTASK,2021.2.3,Win32,119.9616123,,,,space,0.8672,,,,,,,,,,j,1,1.411,space,0,40,40,86,1,Words have a molecular structure,j,1.2781,,
,,,,,,,,7762,2022-04-06_18h57.36.285,ImplicitInfinitySC-SLOWTASK,2021.2.3,Win32,119.9616123,,,,space,0.4338,,,,,,,,,,j,1,1.1342,,0,41,41,58,1,Clocks are alive,j,,,
,,,,,,,,7762,2022-04-06_18h57.36.285,ImplicitInfinitySC-SLOWTASK,2021.2.3,Win32,119.9616123,,,,space,0.4338,,,,,,,,,,j,1,1.0516,,0,42,42,82,1,Stones reproduce,j,,,
,,,,,,,,7762,2022-04-06_18h57.36.285,ImplicitInfinitySC-SLOWTASK,2021.2.3,Win32,119.9616123,,,,space,0.3544,,,,,,,,,,j,1,1.8178,,0,43,43,109,1,A square is a color,j,,,
,,,,,,,,7762,2022-04-06_18h57.36.285,ImplicitInfinitySC-SLOWTASK,2021.2.3,Win32,119.9616123,,,,space,0.501,,,,,,,,,,j,1,3.0694,,0,44,44,14,1,An inch cannot always be further divided,j,,,
,,,,,,,,7762,2022-04-06_18h57.36.285,ImplicitInfinitySC-SLOWTASK,2021.2.3,Win32,119.9616123,,,,space,0.5256,,,,,,,,,,f,1,2.3838,,0,45,45,71,1,Oaks reproduce,f,,,
,,,,,,,,7762,2022-04-06_18h57.36.285,ImplicitInfinitySC-SLOWTASK,2021.2.3,Win32,119.9616123,,,,space,0.4588,,,,,,,,,,j,1,1.2352,,0,46,46,43,1,The number five is endless,j,,,
,,,,,,,,7762,2022-04-06_18h57.36.285,ImplicitInfinitySC-SLOWTASK,2021.2.3,Win32,119.9616123,,,,space,0.5,,,,,,,,,,f,1,2.1674,,0,47,47,2,1,A minute has an end,f,,,
,,,,,,,,7762,2022-04-06_18h57.36.285,ImplicitInfinitySC-SLOWTASK,2021.2.3,Win32,119.9616123,,,,space,0.4676,,,,,,,,,,f,1,1.803,,0,48,48,31,1,Space can always be further divided,f,,,
,,,,,,,,7762,2022-04-06_18h57.36.285,ImplicitInfinitySC-SLOWTASK,2021.2.3,Win32,119.9616123,,,,space,0.4038,,,,,,,,,,f,1,1.2422,,0,49,49,102,1,The Earth is a planet,f,,,
,,,,,,,,7762,2022-04-06_18h57.36.285,ImplicitInfinitySC-SLOWTASK,2021.2.3,Win32,119.9616123,,,,space,0.4089,,,,,,,,,,f,1,0.9031,,0,50,50,93,1,Magenta is a color,f,,,
,,,,,,,,7762,2022-04-06_18h57.36.285,ImplicitInfinitySC-SLOWTASK,2021.2.3,Win32,119.9616123,,,,space,0.3837,,,,,,,,,,f,1,2.5338,,0,51,51,0,1,A minute is finite,f,,,
,,,,,,,,7762,2022-04-06_18h57.36.285,ImplicitInfinitySC-SLOWTASK,2021.2.3,Win32,119.9616123,,,,space,0.3753,,,,,,,,,,j,1,2.6417,,0,52,52,45,1,The number five can go on forever,j,,,
,,,,,,,,7762,2022-04-06_18h57.36.285,ImplicitInfinitySC-SLOWTASK,2021.2.3,Win32,119.9616123,,,,space,0.4185,,,,,,,,,,j,1,2.1039,,0,53,53,41,1,The number five is infinite,j,,,
,,,,,,,,7762,2022-04-06_18h57.36.285,ImplicitInfinitySC-SLOWTASK,2021.2.3,Win32,119.9616123,,,,space,0.4888,,,,,,,,,,f,1,2.3572,,0,54,54,54,1,Dumbells are composed of matter,f,,,
,,,,,,,,7762,2022-04-06_18h57.36.285,ImplicitInfinitySC-SLOWTASK,2021.2.3,Win32,119.9616123,,,,space,0.4562,,,,,,,,,,f,1,2.2727,,0,55,55,68,1,Algae is alive,f,,,
,,,,,,,,7762,2022-04-06_18h57.36.285,ImplicitInfinitySC-SLOWTASK,2021.2.3,Win32,119.9616123,,,,space,0.4359,,,,,,,,,,j,1,1.7775,,0,56,56,32,1,Numbers are finite,j,,,
,,,,,,,,7762,2022-04-06_18h57.36.285,ImplicitInfinitySC-SLOWTASK,2021.2.3,Win32,119.9616123,,,,space,0.3894,,,,,,,,,,j,1,1.4558,,0,57,57,24,1,Space is finite,j,,,
,,,,,,,,7762,2022-04-06_18h57.36.285,ImplicitInfinitySC-SLOWTASK,2021.2.3,Win32,119.9616123,,,,space,0.352,,,,,,,,,,f,1,1.0225,,0,58,58,95,1,Yellow is a color,f,,,
,,,,,,,,7762,2022-04-06_18h57.36.285,ImplicitInfinitySC-SLOWTASK,2021.2.3,Win32,119.9616123,,,,space,0.447,,,,,,,,,,f,1,1.8379,,0,59,59,88,1,This sentence is written in English,f,,,
,,,,,,,,7762,2022-04-06_18h57.36.285,ImplicitInfinitySC-SLOWTASK,2021.2.3,Win32,119.9616123,,,,space,0.3895,,,,,,,,,,f,1,1.1581,,0,60,60,98,1,A clock is used to tell time,f,,,
,,,,,,,,7762,2022-04-06_18h57.36.285,ImplicitInfinitySC-SLOWTASK,2021.2.3,Win32,119.9616123,,,,space,0.6026,,,,,,,,,,j,1,2.4574,,0,61,61,22,1,Time cannot always be further divided,j,,,
,,,,,,,,7762,2022-04-06_18h57.36.285,ImplicitInfinitySC-SLOWTASK,2021.2.3,Win32,119.9616123,,,,space,0.4309,,,,,,,,,,j,1,4.7212,,0,62,62,38,1,Numbers cannot always be further divided,j,,,
,,,,,,,,7762,2022-04-06_18h57.36.285,ImplicitInfinitySC-SLOWTASK,2021.2.3,Win32,119.9616123,,,,space,0.4179,,,,,,,,,,j,1,1.3976,,0,63,63,120,1,A truck is an animal,j,,,
,,,,,,,,7762,2022-04-06_18h57.36.285,ImplicitInfinitySC-SLOWTASK,2021.2.3,Win32,119.9616123,,,,space,0.3921,,,,,,,,,,f,1,1.2252,,0,64,64,107,1,A pencil is used to write,f,,,
,,,,,,,,7762,2022-04-06_18h57.36.285,ImplicitInfinitySC-SLOWTASK,2021.2.3,Win32,119.9616123,,,,space,0.3944,,,,,,,,,,j,1,1.2278,,0,65,65,119,1,A motorcycle is a person,j,,,
,,,,,,,,7762,2022-04-06_18h57.36.285,ImplicitInfinitySC-SLOWTASK,2021.2.3,Win32,119.9616123,,,,space,0.3338,,,,,,,,,,j,1,1.5588,,0,66,66,66,1,Music has a molecular structure,j,,,
,,,,,,,,7762,2022-04-06_18h57.36.285,ImplicitInfinitySC-SLOWTASK,2021.2.3,Win32,119.9616123,,,,space,0.4756,,,,,,,,,,j,1,1.3419,,0,67,67,28,1,Space cannot go on forever,j,,,
,,,,,,,,7762,2022-04-06_18h57.36.285,ImplicitInfinitySC-SLOWTASK,2021.2.3,Win32,119.9616123,,,,space,0.4004,,,,,,,,,,f,1,2.3042,,0,68,68,74,1,Foam is composed of matter,f,,,
,,,,,,,,7762,2022-04-06_18h57.36.285,ImplicitInfinitySC-SLOWTASK,2021.2.3,Win32,119.9616123,,,,space,0.4423,,,,,,,,,,f,1,1.392,,0,69,69,92,1,Dinosaurs are extinct,f,,,
,,,,,,,,7762,2022-04-06_18h57.36.285,ImplicitInfinitySC-SLOWTASK,2021.2.3,Win32,119.9616123,,,,space,0.476,,,,,,,,,,f,1,2.6755,,0,70,70,4,1,A minute cannot go on forever,f,,,
,,,,,,,,7762,2022-04-06_18h57.36.285,ImplicitInfinitySC-SLOWTASK,2021.2.3,Win32,119.9616123,,,,space,0.3776,,,,,,,,,,f,1,1.2012,,0,71,71,50,1,Turtles need nutrients,f,,,
,,,,,,,,7762,2022-04-06_18h57.36.285,ImplicitInfinitySC-SLOWTASK,2021.2.3,Win32,119.9616123,,,,space,0.4423,,,,,,,,,,j,1,1.6085,,0,72,72,112,1,Dinosaurs are not extinct,j,,,
,,,,,,,,7762,2022-04-06_18h57.36.285,ImplicitInfinitySC-SLOWTASK,2021.2.3,Win32,119.9616123,,,,space,0.4752,,,,,,,,,,f,1,3.384,,0,73,73,73,1,Bubbles can be put in a container,f,,,
,,,,,,,,7762,2022-04-06_18h57.36.285,ImplicitInfinitySC-SLOWTASK,2021.2.3,Win32,119.9616123,,,,space,0.5037,,,,,,,,,,j,1,1.8254,,0,74,74,110,1,A triangle is an animal,j,,,
,,,,,,,,7762,2022-04-06_18h57.36.285,ImplicitInfinitySC-SLOWTASK,2021.2.3,Win32,119.9616123,,,,space,0.4335,,,,,,,,,,j,1,1.6351,,0,75,75,1,1,A minute is infinite,j,,,
,,,,,,,,7762,2022-04-06_18h57.36.285,ImplicitInfinitySC-SLOWTASK,2021.2.3,Win32,119.9616123,,,,space,0.4337,,,,,,,,,,j,1,6.3499,,0,76,76,46,1,The number five cannot always be further divided,j,,,
,,,,,,,,7762,2022-04-06_18h57.36.285,ImplicitInfinitySC-SLOWTASK,2021.2.3,Win32,119.9616123,,,,space,0.4618,,,,,,,,,,f,1,3.0026,,0,77,77,7,1,A minute can always be further divided,f,,,
,,,,,,,,7762,2022-04-06_18h57.36.285,ImplicitInfinitySC-SLOWTASK,2021.2.3,Win32,119.9616123,,,,space,0.4521,,,,,,,,,,j,1,1.9753,,0,78,78,124,1,The president of the United States is Oprah,j,,,
,,,,,,,,7762,2022-04-06_18h57.36.285,ImplicitInfinitySC-SLOWTASK,2021.2.3,Win32,119.9616123,,,,space,0.3376,,,,,,,,,,f,1,1.1004,,0,79,79,91,1,A circle is a shape,f,,,
,,,,,,,,7762,2022-04-06_18h57.36.285,ImplicitInfinitySC-SLOWTASK,2021.2.3,Win32,119.9616123,,,,space,0.4202,,,,,,,,,,j,1,1.0172,,0,80,80,81,1,Tables reproduce,j,,,
,,,,,,,,7762,2022-04-06_18h57.36.285,ImplicitInfinitySC-SLOWTASK,2021.2.3,Win32,119.9616123,,,,,,,,,,,,,,,,,,,,,,,,,,,space,16.4252
