SlowInstrKey.keys,SlowInstrKey.rt,SlowInstrLoop.thisRepN,SlowInstrLoop.thisTrialN,SlowInstrLoop.thisN,SlowInstrLoop.thisIndex,SlowInstrLoop.ran,SlowInstructions,participant,date,expName,psychopyVersion,OS,frameRate,key_resp_5.keys,key_resp_5.corr,key_resp_5.rt,key_resp_4.keys,key_resp_4.rt,slowpracticeloop.thisRepN,slowpracticeloop.thisTrialN,slowpracticeloop.thisN,slowpracticeloop.thisIndex,slowpracticeloop.ran,practicetext,practicecorrect,key_resp_3.keys,key_resp_3.rt,SlowKey.keys,SlowKey.corr,SlowKey.rt,encouragekey.keys,SlowLoop.thisRepN,SlowLoop.thisTrialN,SlowLoop.thisN,SlowLoop.thisIndex,SlowLoop.ran,Statement,Correct,encouragekey.rt,endstudykey.keys,endstudykey.rt
space,8.5601,0,0,0,0,1,"You will be shown a total of 80 statements pertaining to mathematics, science, and social concepts. Your task is to determine whether each statement is true or false. Some statements will be difficult and some will be easier.  We do not expect you to know the correct answer for all 80 statements.  Press SPACE to Continue",8296,2022-04-06_19h29.00.209,ImplicitInfinitySC-SLOWTASK,2021.2.3,Win32,60.13952369,,,,,,,,,,,,,,,,,,,,,,,,,,,,
space,11.0677,0,1,1,1,1,"We urge you to try your best and take your time. Each statement will appear on your screen and you will have 10 seconds to decide if it is true or false. You will hear a beep at 6 seconds that will prompt you to respond within the next 4 seconds. If you fail to respond within this time, the trial will be counted as incorrect and the next statement will appear. Press SPACE to continue",8296,2022-04-06_19h29.00.209,ImplicitInfinitySC-SLOWTASK,2021.2.3,Win32,60.13952369,,,,,,,,,,,,,,,,,,,,,,,,,,,,
space,5.2231,0,2,2,2,1,"If the statement is true, you will press the “F” key on your keyboard with your left pointer finger; if the statement is false, you will press the “J” key on your keyboard with your right pointer finger. Press SPACE to continue",8296,2022-04-06_19h29.00.209,ImplicitInfinitySC-SLOWTASK,2021.2.3,Win32,60.13952369,,,,,,,,,,,,,,,,,,,,,,,,,,,,
space,2.3979,0,3,3,3,1,Take your time and go slowly! You have 10 seconds to answer! Press SPACE to continue. ,8296,2022-04-06_19h29.00.209,ImplicitInfinitySC-SLOWTASK,2021.2.3,Win32,60.13952369,,,,,,,,,,,,,,,,,,,,,,,,,,,,
,,,,,,,,8296,2022-04-06_19h29.00.209,ImplicitInfinitySC-SLOWTASK,2021.2.3,Win32,60.13952369,f,1,1.2051,space,0.9676,0,0,0,1,1,Dinosaurs are extinct,f,,,,,,,,,,,,,,,,
,,,,,,,,8296,2022-04-06_19h29.00.209,ImplicitInfinitySC-SLOWTASK,2021.2.3,Win32,60.13952369,j,1,1.9304,space,1.1239,0,1,1,6,1,Jupiter is the planet we live on,j,,,,,,,,,,,,,,,,
,,,,,,,,8296,2022-04-06_19h29.00.209,ImplicitInfinitySC-SLOWTASK,2021.2.3,Win32,60.13952369,j,1,1.0806,space,0.5517,0,2,2,5,1,A truck is an animal,j,,,,,,,,,,,,,,,,
,,,,,,,,8296,2022-04-06_19h29.00.209,ImplicitInfinitySC-SLOWTASK,2021.2.3,Win32,60.13952369,f,1,1.2294,space,1.1571,0,3,3,3,1,A clock is used to tell time,f,,,,,,,,,,,,,,,,
,,,,,,,,8296,2022-04-06_19h29.00.209,ImplicitInfinitySC-SLOWTASK,2021.2.3,Win32,60.13952369,f,1,2.5339,space,0.613,0,4,4,4,1,Humans cannot breathe water,f,,,,,,,,,,,,,,,,
,,,,,,,,8296,2022-04-06_19h29.00.209,ImplicitInfinitySC-SLOWTASK,2021.2.3,Win32,60.13952369,j,1,1.1811,space,0.3229,0,5,5,8,1,Mississippi is a country,j,,,,,,,,,,,,,,,,
,,,,,,,,8296,2022-04-06_19h29.00.209,ImplicitInfinitySC-SLOWTASK,2021.2.3,Win32,60.13952369,f,1,1.3038,space,0.2562,0,6,6,0,1,A circle is a shape,f,,,,,,,,,,,,,,,,
,,,,,,,,8296,2022-04-06_19h29.00.209,ImplicitInfinitySC-SLOWTASK,2021.2.3,Win32,60.13952369,f,1,1.0971,space,0.2314,0,7,7,2,1,Magenta is a color,f,,,,,,,,,,,,,,,,
,,,,,,,,8296,2022-04-06_19h29.00.209,ImplicitInfinitySC-SLOWTASK,2021.2.3,Win32,60.13952369,j,1,1.1812,space,0.2238,0,8,8,9,1,Humans cannot eat food,j,,,,,,,,,,,,,,,,
,,,,,,,,8296,2022-04-06_19h29.00.209,ImplicitInfinitySC-SLOWTASK,2021.2.3,Win32,60.13952369,j,1,1.5243,space,0.2684,0,9,9,7,1,The Earth is a star,j,,,,,,,,,,,,,,,,
,,,,,,,,8296,2022-04-06_19h29.00.209,ImplicitInfinitySC-SLOWTASK,2021.2.3,Win32,60.13952369,,,,space,1.4865,,,,,,,,space,22.798,j,1,1.8857,,0,0,0,64,1,Echoes are composed of matter,j,,,
,,,,,,,,8296,2022-04-06_19h29.00.209,ImplicitInfinitySC-SLOWTASK,2021.2.3,Win32,60.13952369,,,,space,0.3379,,,,,,,,,,j,1,1.5723,,0,1,1,3,1,A minute is endless,j,,,
,,,,,,,,8296,2022-04-06_19h29.00.209,ImplicitInfinitySC-SLOWTASK,2021.2.3,Win32,60.13952369,,,,space,0.277,,,,,,,,,,j,1,1.4079,,0,2,2,41,1,The number five is infinite,j,,,
,,,,,,,,8296,2022-04-06_19h29.00.209,ImplicitInfinitySC-SLOWTASK,2021.2.3,Win32,60.13952369,,,,space,0.2774,,,,,,,,,,j,1,1.1117,,0,3,3,125,1,There are ninty states in the United States,j,,,
,,,,,,,,8296,2022-04-06_19h29.00.209,ImplicitInfinitySC-SLOWTASK,2021.2.3,Win32,60.13952369,,,,space,0.353,,,,,,,,,,f,1,4.0372,,0,4,4,7,1,A minute can always be further divided,f,,,
,,,,,,,,8296,2022-04-06_19h29.00.209,ImplicitInfinitySC-SLOWTASK,2021.2.3,Win32,60.13952369,,,,space,0.2236,,,,,,,,,,f,1,0.9996,,0,5,5,94,1,Orange is a color,f,,,
,,,,,,,,8296,2022-04-06_19h29.00.209,ImplicitInfinitySC-SLOWTASK,2021.2.3,Win32,60.13952369,,,,space,0.204,,,,,,,,,,j,1,1.5986,,0,6,6,61,1,Sailboats reproduce,j,,,
,,,,,,,,8296,2022-04-06_19h29.00.209,ImplicitInfinitySC-SLOWTASK,2021.2.3,Win32,60.13952369,,,,space,0.2304,,,,,,,,,,j,1,0.9659,,0,7,7,11,1,An inch is endless,j,,,
,,,,,,,,8296,2022-04-06_19h29.00.209,ImplicitInfinitySC-SLOWTASK,2021.2.3,Win32,60.13952369,,,,space,0.2746,,,,,,,,,,j,1,1.1933,,0,8,8,81,1,Tables reproduce,j,,,
,,,,,,,,8296,2022-04-06_19h29.00.209,ImplicitInfinitySC-SLOWTASK,2021.2.3,Win32,60.13952369,,,,space,0.2569,,,,,,,,,,j,1,0.9773,,0,9,9,109,1,A square is a color,j,,,
,,,,,,,,8296,2022-04-06_19h29.00.209,ImplicitInfinitySC-SLOWTASK,2021.2.3,Win32,60.13952369,,,,space,0.2151,,,,,,,,,,f,1,1.2584,,0,10,10,74,1,Foam is composed of matter,f,,,
,,,,,,,,8296,2022-04-06_19h29.00.209,ImplicitInfinitySC-SLOWTASK,2021.2.3,Win32,60.13952369,,,,space,0.2237,,,,,,,,,,f,0,1.2889,,0,11,11,16,1,Time is finite,j,,,
,,,,,,,,8296,2022-04-06_19h29.00.209,ImplicitInfinitySC-SLOWTASK,2021.2.3,Win32,60.13952369,,,,space,0.2669,,,,,,,,,,j,1,1.2775,,0,12,12,60,1,Robots need nutrients,j,,,
,,,,,,,,8296,2022-04-06_19h29.00.209,ImplicitInfinitySC-SLOWTASK,2021.2.3,Win32,60.13952369,,,,space,0.2107,,,,,,,,,,f,1,1.0047,,0,13,13,51,1,Tigers reproduce,f,,,
,,,,,,,,8296,2022-04-06_19h29.00.209,ImplicitInfinitySC-SLOWTASK,2021.2.3,Win32,60.13952369,,,,space,0.1935,,,,,,,,,,f,1,0.8396,,0,14,14,92,1,Dinosaurs are extinct,f,,,
,,,,,,,,8296,2022-04-06_19h29.00.209,ImplicitInfinitySC-SLOWTASK,2021.2.3,Win32,60.13952369,,,,space,0.2405,,,,,,,,,,f,0,3.4615,,0,15,15,22,1,Time cannot always be further divided,j,,,
,,,,,,,,8296,2022-04-06_19h29.00.209,ImplicitInfinitySC-SLOWTASK,2021.2.3,Win32,60.13952369,,,,space,0.2058,,,,,,,,,,f,0,2.6467,,0,16,16,6,1,A minute cannot always be further divided,j,,,
,,,,,,,,8296,2022-04-06_19h29.00.209,ImplicitInfinitySC-SLOWTASK,2021.2.3,Win32,60.13952369,,,,space,0.2151,,,,,,,,,,f,1,1.4191,,0,17,17,2,1,A minute has an end,f,,,
,,,,,,,,8296,2022-04-06_19h29.00.209,ImplicitInfinitySC-SLOWTASK,2021.2.3,Win32,60.13952369,,,,space,0.2378,,,,,,,,,,j,1,0.8457,,0,18,18,115,1,Yellow is an animal,j,,,
,,,,,,,,8296,2022-04-06_19h29.00.209,ImplicitInfinitySC-SLOWTASK,2021.2.3,Win32,60.13952369,,,,space,0.3496,,,,,,,,,,f,1,1.0231,,0,19,19,103,1,The United States is a country,f,,,
,,,,,,,,8296,2022-04-06_19h29.00.209,ImplicitInfinitySC-SLOWTASK,2021.2.3,Win32,60.13952369,,,,space,0.1798,,,,,,,,,,j,1,0.9377,,0,20,20,110,1,A triangle is an animal,j,,,
,,,,,,,,8296,2022-04-06_19h29.00.209,ImplicitInfinitySC-SLOWTASK,2021.2.3,Win32,60.13952369,,,,space,0.1772,,,,,,,,,,f,1,0.7105,,0,21,21,95,1,Yellow is a color,f,,,
,,,,,,,,8296,2022-04-06_19h29.00.209,ImplicitInfinitySC-SLOWTASK,2021.2.3,Win32,60.13952369,,,,space,0.2077,,,,,,,,,,j,1,0.7922,,0,22,22,111,1,A circle is a flavor,j,,,
,,,,,,,,8296,2022-04-06_19h29.00.209,ImplicitInfinitySC-SLOWTASK,2021.2.3,Win32,60.13952369,,,,space,0.2278,,,,,,,,,,f,1,1.7294,,0,23,23,77,1,Saliva has a molecular structure,f,,,
,,,,,,,,8296,2022-04-06_19h29.00.209,ImplicitInfinitySC-SLOWTASK,2021.2.3,Win32,60.13952369,,,,space,0.222,,,,,,,,,,j,1,1.1629,,0,24,24,26,1,Space has an end,j,,,
,,,,,,,,8296,2022-04-06_19h29.00.209,ImplicitInfinitySC-SLOWTASK,2021.2.3,Win32,60.13952369,,,,space,0.1908,,,,,,,,,,f,1,0.7302,,0,25,25,91,1,A circle is a shape,f,,,
,,,,,,,,8296,2022-04-06_19h29.00.209,ImplicitInfinitySC-SLOWTASK,2021.2.3,Win32,60.13952369,,,,space,0.2008,,,,,,,,,,f,1,1.2081,,0,26,26,37,1,Numbers can go on forever,f,,,
,,,,,,,,8296,2022-04-06_19h29.00.209,ImplicitInfinitySC-SLOWTASK,2021.2.3,Win32,60.13952369,,,,space,0.3395,,,,,,,,,,f,1,1.2064,,0,27,27,25,1,Space is infinite,f,,,
,,,,,,,,8296,2022-04-06_19h29.00.209,ImplicitInfinitySC-SLOWTASK,2021.2.3,Win32,60.13952369,,,,space,0.2087,,,,,,,,,,f,1,1.8503,,0,28,28,44,1,The number five cannot go on forever,f,,,
,,,,,,,,8296,2022-04-06_19h29.00.209,ImplicitInfinitySC-SLOWTASK,2021.2.3,Win32,60.13952369,,,,space,0.2024,,,,,,,,,,f,1,1.3707,,0,29,29,8,1,An inch is finite,f,,,
,,,,,,,,8296,2022-04-06_19h29.00.209,ImplicitInfinitySC-SLOWTASK,2021.2.3,Win32,60.13952369,,,,space,0.2898,,,,,,,,,,f,1,1.7112,,0,30,30,105,1,There are fifty states in the United States,f,,,
,,,,,,,,8296,2022-04-06_19h29.00.209,ImplicitInfinitySC-SLOWTASK,2021.2.3,Win32,60.13952369,,,,space,0.5342,,,,,,,,,,j,0,0.9572,,0,31,31,90,1,A triangle is not an animal,f,,,
,,,,,,,,8296,2022-04-06_19h29.00.209,ImplicitInfinitySC-SLOWTASK,2021.2.3,Win32,60.13952369,,,,space,0.2415,,,,,,,,,,j,1,1.1997,,0,32,32,5,1,A minute can go on forever,j,,,
,,,,,,,,8296,2022-04-06_19h29.00.209,ImplicitInfinitySC-SLOWTASK,2021.2.3,Win32,60.13952369,,,,space,0.2089,,,,,,,,,,f,1,1.39,,0,33,33,106,1,Humans cannot breathe water,f,,,
,,,,,,,,8296,2022-04-06_19h29.00.209,ImplicitInfinitySC-SLOWTASK,2021.2.3,Win32,60.13952369,,,,space,0.2033,,,,,,,,,,f,1,1.0274,,0,34,34,102,1,The Earth is a planet,f,,,
,,,,,,,,8296,2022-04-06_19h29.00.209,ImplicitInfinitySC-SLOWTASK,2021.2.3,Win32,60.13952369,,,,space,0.1882,,,,,,,,,,f,1,0.8827,,0,35,35,48,1,Crocodiles are alive,f,,,
,,,,,,,,8296,2022-04-06_19h29.00.209,ImplicitInfinitySC-SLOWTASK,2021.2.3,Win32,60.13952369,,,,space,0.5072,,,,,,,,,,f,1,2.1319,,0,36,36,39,1,Numbers can always be further divided,f,,,
,,,,,,,,8296,2022-04-06_19h29.00.209,ImplicitInfinitySC-SLOWTASK,2021.2.3,Win32,60.13952369,,,,space,0.334,,,,,,,,,,f,1,2.1191,,0,37,37,53,1,Bricks can be put in a container,f,,,
,,,,,,,,8296,2022-04-06_19h29.00.209,ImplicitInfinitySC-SLOWTASK,2021.2.3,Win32,60.13952369,,,,space,0.1819,,,,,,,,,,f,1,0.9288,,0,38,38,98,1,A clock is used to tell time,f,,,
,,,,,,,,8296,2022-04-06_19h29.00.209,ImplicitInfinitySC-SLOWTASK,2021.2.3,Win32,60.13952369,,,,space,0.2018,,,,,,,,,,j,1,1.5598,,0,39,39,36,1,Numbers cannot go on forever,j,,,
,,,,,,,,8296,2022-04-06_19h29.00.209,ImplicitInfinitySC-SLOWTASK,2021.2.3,Win32,60.13952369,,,,space,0.5614,,,,,,,,,,f,1,0.7418,space,0,40,40,68,1,Algae is alive,f,0.0087,,
,,,,,,,,8296,2022-04-06_19h29.00.209,ImplicitInfinitySC-SLOWTASK,2021.2.3,Win32,60.13952369,,,,space,0.1551,,,,,,,,,,j,1,1.1725,,0,41,41,114,1,Lightbulbs are made of clay,j,,,
,,,,,,,,8296,2022-04-06_19h29.00.209,ImplicitInfinitySC-SLOWTASK,2021.2.3,Win32,60.13952369,,,,space,0.1344,,,,,,,,,,f,1,1.5503,,0,42,42,73,1,Bubbles can be put in a container,f,,,
,,,,,,,,8296,2022-04-06_19h29.00.209,ImplicitInfinitySC-SLOWTASK,2021.2.3,Win32,60.13952369,,,,space,0.1766,,,,,,,,,,f,0,1.3096,,0,43,43,63,1,Color can be put in a container,j,,,
,,,,,,,,8296,2022-04-06_19h29.00.209,ImplicitInfinitySC-SLOWTASK,2021.2.3,Win32,60.13952369,,,,space,0.1685,,,,,,,,,,f,1,0.9501,,0,44,44,99,1,A motorcycle is a vehicle,f,,,
,,,,,,,,8296,2022-04-06_19h29.00.209,ImplicitInfinitySC-SLOWTASK,2021.2.3,Win32,60.13952369,,,,space,0.1709,,,,,,,,,,f,0,2.0847,,0,45,45,38,1,Numbers cannot always be further divided,j,,,
,,,,,,,,8296,2022-04-06_19h29.00.209,ImplicitInfinitySC-SLOWTASK,2021.2.3,Win32,60.13952369,,,,space,0.2395,,,,,,,,,,j,0,2.4672,,0,46,46,23,1,Time can always be further divided,f,,,
,,,,,,,,8296,2022-04-06_19h29.00.209,ImplicitInfinitySC-SLOWTASK,2021.2.3,Win32,60.13952369,,,,space,0.2845,,,,,,,,,,j,1,1.5039,,0,47,47,124,1,The president of the United States is Oprah,j,,,
,,,,,,,,8296,2022-04-06_19h29.00.209,ImplicitInfinitySC-SLOWTASK,2021.2.3,Win32,60.13952369,,,,space,0.2484,,,,,,,,,,f,1,0.9291,,0,48,48,71,1,Oaks reproduce,f,,,
,,,,,,,,8296,2022-04-06_19h29.00.209,ImplicitInfinitySC-SLOWTASK,2021.2.3,Win32,60.13952369,,,,space,0.2402,,,,,,,,,,f,1,1.2288,,0,49,49,35,1,Numbers are endless,f,,,
,,,,,,,,8296,2022-04-06_19h29.00.209,ImplicitInfinitySC-SLOWTASK,2021.2.3,Win32,60.13952369,,,,space,0.1869,,,,,,,,,,j,1,1.2255,,0,50,50,32,1,Numbers are finite,j,,,
,,,,,,,,8296,2022-04-06_19h29.00.209,ImplicitInfinitySC-SLOWTASK,2021.2.3,Win32,60.13952369,,,,space,0.1973,,,,,,,,,,j,1,1.3114,,0,51,51,34,1,Numbers have an end,j,,,
,,,,,,,,8296,2022-04-06_19h29.00.209,ImplicitInfinitySC-SLOWTASK,2021.2.3,Win32,60.13952369,,,,space,0.2093,,,,,,,,,,j,1,1.5026,,0,52,52,67,1,Gravity has a molecular structure,j,,,
,,,,,,,,8296,2022-04-06_19h29.00.209,ImplicitInfinitySC-SLOWTASK,2021.2.3,Win32,60.13952369,,,,space,0.1913,,,,,,,,,,j,1,1.066,,0,53,53,13,1,An inch can go on forever,j,,,
,,,,,,,,8296,2022-04-06_19h29.00.209,ImplicitInfinitySC-SLOWTASK,2021.2.3,Win32,60.13952369,,,,space,0.2218,,,,,,,,,,j,1,1.1554,,0,54,54,45,1,The number five can go on forever,j,,,
,,,,,,,,8296,2022-04-06_19h29.00.209,ImplicitInfinitySC-SLOWTASK,2021.2.3,Win32,60.13952369,,,,space,0.1943,,,,,,,,,,j,1,1.1107,,0,55,55,62,1,Helicopters reproduce,j,,,
,,,,,,,,8296,2022-04-06_19h29.00.209,ImplicitInfinitySC-SLOWTASK,2021.2.3,Win32,60.13952369,,,,space,0.2451,,,,,,,,,,j,1,1.3197,,0,56,56,112,1,Dinosaurs are not extinct,j,,,
,,,,,,,,8296,2022-04-06_19h29.00.209,ImplicitInfinitySC-SLOWTASK,2021.2.3,Win32,60.13952369,,,,space,0.2229,,,,,,,,,,j,1,0.8872,,0,57,57,122,1,The Earth is a star,j,,,
,,,,,,,,8296,2022-04-06_19h29.00.209,ImplicitInfinitySC-SLOWTASK,2021.2.3,Win32,60.13952369,,,,space,0.2248,,,,,,,,,,f,0,2.8391,,0,58,58,46,1,The number five cannot always be further divided,j,,,
,,,,,,,,8296,2022-04-06_19h29.00.209,ImplicitInfinitySC-SLOWTASK,2021.2.3,Win32,60.13952369,,,,space,0.2081,,,,,,,,,,j,1,1.2465,,0,59,59,113,1,Magenta is a shape,j,,,
,,,,,,,,8296,2022-04-06_19h29.00.209,ImplicitInfinitySC-SLOWTASK,2021.2.3,Win32,60.13952369,,,,space,0.1302,,,,,,,,,,f,1,1.2714,,0,60,60,17,1,Time is infinite,f,,,
,,,,,,,,8296,2022-04-06_19h29.00.209,ImplicitInfinitySC-SLOWTASK,2021.2.3,Win32,60.13952369,,,,space,0.1591,,,,,,,,,,f,1,0.9743,,0,61,61,72,1,Mushrooms reproduce,f,,,
,,,,,,,,8296,2022-04-06_19h29.00.209,ImplicitInfinitySC-SLOWTASK,2021.2.3,Win32,60.13952369,,,,space,0.1436,,,,,,,,,,j,1,0.9687,,0,62,62,82,1,Stones reproduce,j,,,
,,,,,,,,8296,2022-04-06_19h29.00.209,ImplicitInfinitySC-SLOWTASK,2021.2.3,Win32,60.13952369,,,,space,0.132,,,,,,,,,,f,1,1.7241,,0,63,63,97,1,Dolphins can swim in the ocean,f,,,
,,,,,,,,8296,2022-04-06_19h29.00.209,ImplicitInfinitySC-SLOWTASK,2021.2.3,Win32,60.13952369,,,,space,0.1698,,,,,,,,,,f,1,0.7898,,0,64,64,52,1,Frogs reproduce,f,,,
,,,,,,,,8296,2022-04-06_19h29.00.209,ImplicitInfinitySC-SLOWTASK,2021.2.3,Win32,60.13952369,,,,space,0.1297,,,,,,,,,,f,1,1.2136,,0,65,65,101,1,Jupiter is in our solar system,f,,,
,,,,,,,,8296,2022-04-06_19h29.00.209,ImplicitInfinitySC-SLOWTASK,2021.2.3,Win32,60.13952369,,,,space,0.6271,,,,,,,,,,f,0,1.0786,,0,66,66,24,1,Space is finite,j,,,
,,,,,,,,8296,2022-04-06_19h29.00.209,ImplicitInfinitySC-SLOWTASK,2021.2.3,Win32,60.13952369,,,,space,0.1565,,,,,,,,,,j,1,1.153,,0,67,67,117,1,Dolphins cannot swim in the ocean,j,,,
,,,,,,,,8296,2022-04-06_19h29.00.209,ImplicitInfinitySC-SLOWTASK,2021.2.3,Win32,60.13952369,,,,space,0.3358,,,,,,,,,,f,1,4.0109,,0,68,68,21,1,Time can go on forever,f,,,
,,,,,,,,8296,2022-04-06_19h29.00.209,ImplicitInfinitySC-SLOWTASK,2021.2.3,Win32,60.13952369,,,,space,0.1625,,,,,,,,,,f,1,1.1873,,0,69,69,107,1,A pencil is used to write,f,,,
,,,,,,,,8296,2022-04-06_19h29.00.209,ImplicitInfinitySC-SLOWTASK,2021.2.3,Win32,60.13952369,,,,space,0.1231,,,,,,,,,,j,1,1.0483,,0,70,70,58,1,Clocks are alive,j,,,
,,,,,,,,8296,2022-04-06_19h29.00.209,ImplicitInfinitySC-SLOWTASK,2021.2.3,Win32,60.13952369,,,,space,0.1497,,,,,,,,,,f,1,1.3843,,0,71,71,88,1,This sentence is written in English,f,,,
,,,,,,,,8296,2022-04-06_19h29.00.209,ImplicitInfinitySC-SLOWTASK,2021.2.3,Win32,60.13952369,,,,space,0.1167,,,,,,,,,,f,1,1.5097,,0,72,72,104,1,The United States has a president,f,,,
,,,,,,,,8296,2022-04-06_19h29.00.209,ImplicitInfinitySC-SLOWTASK,2021.2.3,Win32,60.13952369,,,,space,0.1569,,,,,,,,,,f,1,0.8468,,0,73,73,93,1,Magenta is a color,f,,,
,,,,,,,,8296,2022-04-06_19h29.00.209,ImplicitInfinitySC-SLOWTASK,2021.2.3,Win32,60.13952369,,,,space,0.1249,,,,,,,,,,f,1,1.1865,,0,74,74,0,1,A minute is finite,f,,,
,,,,,,,,8296,2022-04-06_19h29.00.209,ImplicitInfinitySC-SLOWTASK,2021.2.3,Win32,60.13952369,,,,space,0.133,,,,,,,,,,j,1,3.7857,,0,75,75,20,1,Time cannot go on forever,j,,,
,,,,,,,,8296,2022-04-06_19h29.00.209,ImplicitInfinitySC-SLOWTASK,2021.2.3,Win32,60.13952369,,,,space,0.1817,,,,,,,,,,j,1,1.4591,,0,76,76,118,1,A horse is used to tell time,j,,,
,,,,,,,,8296,2022-04-06_19h29.00.209,ImplicitInfinitySC-SLOWTASK,2021.2.3,Win32,60.13952369,,,,space,0.1184,,,,,,,,,,f,1,1.2023,,0,77,77,27,1,Space is endless,f,,,
,,,,,,,,8296,2022-04-06_19h29.00.209,ImplicitInfinitySC-SLOWTASK,2021.2.3,Win32,60.13952369,,,,space,0.1595,,,,,,,,,,j,1,0.9739,,0,78,78,120,1,A truck is an animal,j,,,
,,,,,,,,8296,2022-04-06_19h29.00.209,ImplicitInfinitySC-SLOWTASK,2021.2.3,Win32,60.13952369,,,,space,0.1082,,,,,,,,,,f,1,1.205,,0,79,79,12,1,An inch cannot go on forever,f,,,
,,,,,,,,8296,2022-04-06_19h29.00.209,ImplicitInfinitySC-SLOWTASK,2021.2.3,Win32,60.13952369,,,,space,0.1819,,,,,,,,,,j,1,1.2443,,0,80,80,66,1,Music has a molecular structure,j,,,
,,,,,,,,8296,2022-04-06_19h29.00.209,ImplicitInfinitySC-SLOWTASK,2021.2.3,Win32,60.13952369,,,,,,,,,,,,,,,,,,,,,,,,,,,space,14.6935
