SlowInstrKey.keys,SlowInstrKey.rt,SlowInstrLoop.thisRepN,SlowInstrLoop.thisTrialN,SlowInstrLoop.thisN,SlowInstrLoop.thisIndex,SlowInstrLoop.ran,SlowInstructions,participant,date,expName,psychopyVersion,OS,frameRate,key_resp_5.keys,key_resp_5.corr,key_resp_5.rt,key_resp_4.keys,key_resp_4.rt,slowpracticeloop.thisRepN,slowpracticeloop.thisTrialN,slowpracticeloop.thisN,slowpracticeloop.thisIndex,slowpracticeloop.ran,practicetext,practicecorrect,key_resp_3.keys,key_resp_3.rt,SlowKey.keys,SlowKey.corr,SlowKey.rt,encouragekey.keys,SlowLoop.thisRepN,SlowLoop.thisTrialN,SlowLoop.thisN,SlowLoop.thisIndex,SlowLoop.ran,Statement,Correct,encouragekey.rt,endstudykey.keys
space,14.9193,0,0,0,0,1,"You will be shown a total of 80 statements pertaining to mathematics, science, and social concepts. Your task is to determine whether each statement is true or false. Some statements will be difficult and some will be easier.  We do not expect you to know the correct answer for all 80 statements.  Press SPACE to Continue",8515,2022-04-06_18h06.53.449,ImplicitInfinitySC-SLOWTASK,2021.2.3,Win32,59.98440405,,,,,,,,,,,,,,,,,,,,,,,,,,,
space,13.6516,0,1,1,1,1,"We urge you to try your best and take your time. Each statement will appear on your screen and you will have 10 seconds to decide if it is true or false. You will hear a beep at 6 seconds that will prompt you to respond within the next 4 seconds. If you fail to respond within this time, the trial will be counted as incorrect and the next statement will appear. Press SPACE to continue",8515,2022-04-06_18h06.53.449,ImplicitInfinitySC-SLOWTASK,2021.2.3,Win32,59.98440405,,,,,,,,,,,,,,,,,,,,,,,,,,,
space,24.0256,0,2,2,2,1,"If the statement is true, you will press the “F” key on your keyboard with your left pointer finger; if the statement is false, you will press the “J” key on your keyboard with your right pointer finger. Press SPACE to continue",8515,2022-04-06_18h06.53.449,ImplicitInfinitySC-SLOWTASK,2021.2.3,Win32,59.98440405,,,,,,,,,,,,,,,,,,,,,,,,,,,
space,3.2743,0,3,3,3,1,Take your time and go slowly! You have 10 seconds to answer! Press SPACE to continue. ,8515,2022-04-06_18h06.53.449,ImplicitInfinitySC-SLOWTASK,2021.2.3,Win32,59.98440405,,,,,,,,,,,,,,,,,,,,,,,,,,,
,,,,,,,,8515,2022-04-06_18h06.53.449,ImplicitInfinitySC-SLOWTASK,2021.2.3,Win32,59.98440405,f,1,3.0003,space,2.3354,0,0,0,1,1,Dinosaurs are extinct,f,,,,,,,,,,,,,,,
,,,,,,,,8515,2022-04-06_18h06.53.449,ImplicitInfinitySC-SLOWTASK,2021.2.3,Win32,59.98440405,j,1,2.0972,space,1.2,0,1,1,9,1,Humans cannot eat food,j,,,,,,,,,,,,,,,
,,,,,,,,8515,2022-04-06_18h06.53.449,ImplicitInfinitySC-SLOWTASK,2021.2.3,Win32,59.98440405,f,1,1.6924,space,1.1362,0,2,2,3,1,A clock is used to tell time,f,,,,,,,,,,,,,,,
,,,,,,,,8515,2022-04-06_18h06.53.449,ImplicitInfinitySC-SLOWTASK,2021.2.3,Win32,59.98440405,f,1,2.0672,space,0.9084,0,3,3,4,1,Humans cannot breathe water,f,,,,,,,,,,,,,,,
,,,,,,,,8515,2022-04-06_18h06.53.449,ImplicitInfinitySC-SLOWTASK,2021.2.3,Win32,59.98440405,j,1,1.6947,space,1.2018,0,4,4,7,1,The Earth is a star,j,,,,,,,,,,,,,,,
,,,,,,,,8515,2022-04-06_18h06.53.449,ImplicitInfinitySC-SLOWTASK,2021.2.3,Win32,59.98440405,f,1,1.4601,space,1.172,0,5,5,2,1,Magenta is a color,f,,,,,,,,,,,,,,,
,,,,,,,,8515,2022-04-06_18h06.53.449,ImplicitInfinitySC-SLOWTASK,2021.2.3,Win32,59.98440405,j,1,2.0033,space,1.3518,0,6,6,6,1,Jupiter is the planet we live on,j,,,,,,,,,,,,,,,
,,,,,,,,8515,2022-04-06_18h06.53.449,ImplicitInfinitySC-SLOWTASK,2021.2.3,Win32,59.98440405,f,1,1.8027,space,1.1952,0,7,7,0,1,A circle is a shape,f,,,,,,,,,,,,,,,
,,,,,,,,8515,2022-04-06_18h06.53.449,ImplicitInfinitySC-SLOWTASK,2021.2.3,Win32,59.98440405,j,1,2.4357,space,0.9081,0,8,8,8,1,Mississippi is a country,j,,,,,,,,,,,,,,,
,,,,,,,,8515,2022-04-06_18h06.53.449,ImplicitInfinitySC-SLOWTASK,2021.2.3,Win32,59.98440405,j,1,1.819,space,0.8503,0,9,9,5,1,A truck is an animal,j,,,,,,,,,,,,,,,
,,,,,,,,8515,2022-04-06_18h06.53.449,ImplicitInfinitySC-SLOWTASK,2021.2.3,Win32,59.98440405,,,,space,1.518,,,,,,,,space,7.9389,f,0,3.0875,,0,0,0,64,1,Echoes are composed of matter,j,,
,,,,,,,,8515,2022-04-06_18h06.53.449,ImplicitInfinitySC-SLOWTASK,2021.2.3,Win32,59.98440405,,,,space,0.9475,,,,,,,,,,f,1,2.6458,,0,1,1,31,1,Space can always be further divided,f,,
,,,,,,,,8515,2022-04-06_18h06.53.449,ImplicitInfinitySC-SLOWTASK,2021.2.3,Win32,59.98440405,,,,space,0.8706,,,,,,,,,,j,1,2.6538,,0,2,2,59,1,Comets are alive,j,,
,,,,,,,,8515,2022-04-06_18h06.53.449,ImplicitInfinitySC-SLOWTASK,2021.2.3,Win32,59.98440405,,,,space,0.7173,,,,,,,,,,f,1,1.8741,,0,3,3,104,1,The United States has a president,f,,
,,,,,,,,8515,2022-04-06_18h06.53.449,ImplicitInfinitySC-SLOWTASK,2021.2.3,Win32,59.98440405,,,,space,0.6333,,,,,,,,,,f,0,2.3278,,0,4,4,67,1,Gravity has a molecular structure,j,,
,,,,,,,,8515,2022-04-06_18h06.53.449,ImplicitInfinitySC-SLOWTASK,2021.2.3,Win32,59.98440405,,,,space,0.5002,,,,,,,,,,j,1,2.7164,,0,5,5,34,1,Numbers have an end,j,,
,,,,,,,,8515,2022-04-06_18h06.53.449,ImplicitInfinitySC-SLOWTASK,2021.2.3,Win32,59.98440405,,,,space,0.568,,,,,,,,,,j,1,2.5963,,0,6,6,118,1,A horse is used to tell time,j,,
,,,,,,,,8515,2022-04-06_18h06.53.449,ImplicitInfinitySC-SLOWTASK,2021.2.3,Win32,59.98440405,,,,space,0.39,,,,,,,,,,j,1,1.546,,0,7,7,121,1,Jupiter is the planet we live on,j,,
,,,,,,,,8515,2022-04-06_18h06.53.449,ImplicitInfinitySC-SLOWTASK,2021.2.3,Win32,59.98440405,,,,space,0.6626,,,,,,,,,,f,1,1.8436,,0,8,8,33,1,Numbers are infinite,f,,
,,,,,,,,8515,2022-04-06_18h06.53.449,ImplicitInfinitySC-SLOWTASK,2021.2.3,Win32,59.98440405,,,,space,0.4513,,,,,,,,,,f,1,1.5487,,0,9,9,99,1,A motorcycle is a vehicle,f,,
,,,,,,,,8515,2022-04-06_18h06.53.449,ImplicitInfinitySC-SLOWTASK,2021.2.3,Win32,59.98440405,,,,space,0.4784,,,,,,,,,,j,1,3.5103,,0,10,10,18,1,Time has an end,j,,
,,,,,,,,8515,2022-04-06_18h06.53.449,ImplicitInfinitySC-SLOWTASK,2021.2.3,Win32,59.98440405,,,,space,0.5153,,,,,,,,,,f,1,1.3898,,0,11,11,35,1,Numbers are endless,f,,
,,,,,,,,8515,2022-04-06_18h06.53.449,ImplicitInfinitySC-SLOWTASK,2021.2.3,Win32,59.98440405,,,,space,0.4906,,,,,,,,,,f,1,1.1544,,0,12,12,91,1,A circle is a shape,f,,
,,,,,,,,8515,2022-04-06_18h06.53.449,ImplicitInfinitySC-SLOWTASK,2021.2.3,Win32,59.98440405,,,,space,0.5514,,,,,,,,,,j,1,2.1504,,0,13,13,11,1,An inch is endless,j,,
,,,,,,,,8515,2022-04-06_18h06.53.449,ImplicitInfinitySC-SLOWTASK,2021.2.3,Win32,59.98440405,,,,space,0.7157,,,,,,,,,,f,1,1.5647,,0,14,14,98,1,A clock is used to tell time,f,,
,,,,,,,,8515,2022-04-06_18h06.53.449,ImplicitInfinitySC-SLOWTASK,2021.2.3,Win32,59.98440405,,,,space,1.1851,,,,,,,,,,f,1,2.6077,,0,15,15,53,1,Bricks can be put in a container,f,,
,,,,,,,,8515,2022-04-06_18h06.53.449,ImplicitInfinitySC-SLOWTASK,2021.2.3,Win32,59.98440405,,,,space,1.118,,,,,,,,,,j,0,3.9549,,0,16,16,44,1,The number five cannot go on forever,f,,
,,,,,,,,8515,2022-04-06_18h06.53.449,ImplicitInfinitySC-SLOWTASK,2021.2.3,Win32,59.98440405,,,,space,0.9108,,,,,,,,,,j,1,4.0514,,0,17,17,87,1,Dreams have a molecular structure,j,,
,,,,,,,,8515,2022-04-06_18h06.53.449,ImplicitInfinitySC-SLOWTASK,2021.2.3,Win32,59.98440405,,,,space,0.7671,,,,,,,,,,f,1,1.3336,,0,18,18,94,1,Orange is a color,f,,
,,,,,,,,8515,2022-04-06_18h06.53.449,ImplicitInfinitySC-SLOWTASK,2021.2.3,Win32,59.98440405,,,,space,0.7184,,,,,,,,,,f,1,4.0949,,0,19,19,57,1,Rocks have a molecular structure,f,,
,,,,,,,,8515,2022-04-06_18h06.53.449,ImplicitInfinitySC-SLOWTASK,2021.2.3,Win32,59.98440405,,,,space,0.7503,,,,,,,,,,f,0,4.1361,,0,20,20,38,1,Numbers cannot always be further divided,j,,
,,,,,,,,8515,2022-04-06_18h06.53.449,ImplicitInfinitySC-SLOWTASK,2021.2.3,Win32,59.98440405,,,,space,0.8358,,,,,,,,,,j,1,3.6066,,0,21,21,124,1,The president of the United States is Oprah,j,,
,,,,,,,,8515,2022-04-06_18h06.53.449,ImplicitInfinitySC-SLOWTASK,2021.2.3,Win32,59.98440405,,,,space,0.8063,,,,,,,,,,j,1,2.7825,,0,22,22,116,1,Fish cannot swim in the ocean,j,,
,,,,,,,,8515,2022-04-06_18h06.53.449,ImplicitInfinitySC-SLOWTASK,2021.2.3,Win32,59.98440405,,,,space,0.9171,,,,,,,,,,f,0,3.3926,,0,23,23,45,1,The number five can go on forever,j,,
,,,,,,,,8515,2022-04-06_18h06.53.449,ImplicitInfinitySC-SLOWTASK,2021.2.3,Win32,59.98440405,,,,space,0.7213,,,,,,,,,,j,0,2.3541,,0,24,24,47,1,The number five can always be further divided,f,,
,,,,,,,,8515,2022-04-06_18h06.53.449,ImplicitInfinitySC-SLOWTASK,2021.2.3,Win32,59.98440405,,,,space,0.65,,,,,,,,,,f,0,3.3702,,0,25,25,85,1,Thoughts are composed of matter,j,,
,,,,,,,,8515,2022-04-06_18h06.53.449,ImplicitInfinitySC-SLOWTASK,2021.2.3,Win32,59.98440405,,,,space,0.6211,,,,,,,,,,j,1,1.9256,,0,26,26,83,1,Songs can be put in a container,j,,
,,,,,,,,8515,2022-04-06_18h06.53.449,ImplicitInfinitySC-SLOWTASK,2021.2.3,Win32,59.98440405,,,,space,0.642,,,,,,,,,,f,1,1.7937,,0,27,27,69,1,Bacteria are alive,f,,
,,,,,,,,8515,2022-04-06_18h06.53.449,ImplicitInfinitySC-SLOWTASK,2021.2.3,Win32,59.98440405,,,,space,0.5434,,,,,,,,,,j,0,3.0384,,0,28,28,15,1,An inch can be always further divided,f,,
,,,,,,,,8515,2022-04-06_18h06.53.449,ImplicitInfinitySC-SLOWTASK,2021.2.3,Win32,59.98440405,,,,space,0.5269,,,,,,,,,,j,0,2.4313,,0,29,29,54,1,Dumbells are composed of matter,f,,
,,,,,,,,8515,2022-04-06_18h06.53.449,ImplicitInfinitySC-SLOWTASK,2021.2.3,Win32,59.98440405,,,,space,0.5982,,,,,,,,,,j,1,1.6646,,0,30,30,120,1,A truck is an animal,j,,
,,,,,,,,8515,2022-04-06_18h06.53.449,ImplicitInfinitySC-SLOWTASK,2021.2.3,Win32,59.98440405,,,,space,0.6047,,,,,,,,,,f,0,3.1414,,0,31,31,14,1,An inch cannot always be further divided,j,,
,,,,,,,,8515,2022-04-06_18h06.53.449,ImplicitInfinitySC-SLOWTASK,2021.2.3,Win32,59.98440405,,,,space,0.7989,,,,,,,,,,j,1,2.4514,,0,32,32,122,1,The Earth is a star,j,,
,,,,,,,,8515,2022-04-06_18h06.53.449,ImplicitInfinitySC-SLOWTASK,2021.2.3,Win32,59.98440405,,,,space,0.7336,,,,,,,,,,j,1,2.9053,,0,33,33,9,1,An inch is infinite,j,,
,,,,,,,,8515,2022-04-06_18h06.53.449,ImplicitInfinitySC-SLOWTASK,2021.2.3,Win32,59.98440405,,,,space,0.5379,,,,,,,,,,f,1,1.5655,,0,34,34,49,1,Pelicans are alive,f,,
,,,,,,,,8515,2022-04-06_18h06.53.449,ImplicitInfinitySC-SLOWTASK,2021.2.3,Win32,59.98440405,,,,space,0.9061,,,,,,,,,,f,1,1.8049,,0,35,35,103,1,The United States is a country,f,,
,,,,,,,,8515,2022-04-06_18h06.53.449,ImplicitInfinitySC-SLOWTASK,2021.2.3,Win32,59.98440405,,,,space,0.722,,,,,,,,,,j,1,4.006,,0,36,36,84,1,Silence is composed of matter,j,,
,,,,,,,,8515,2022-04-06_18h06.53.449,ImplicitInfinitySC-SLOWTASK,2021.2.3,Win32,59.98440405,,,,space,0.5233,,,,,,,,,,f,0,3.5496,,0,37,37,6,1,A minute cannot always be further divided,j,,
,,,,,,,,8515,2022-04-06_18h06.53.449,ImplicitInfinitySC-SLOWTASK,2021.2.3,Win32,59.98440405,,,,space,0.5095,,,,,,,,,,f,1,2.3017,,0,38,38,4,1,A minute cannot go on forever,f,,
,,,,,,,,8515,2022-04-06_18h06.53.449,ImplicitInfinitySC-SLOWTASK,2021.2.3,Win32,59.98440405,,,,space,1.0332,,,,,,,,,,j,0,2.2269,,0,39,39,29,1,Space can go on forever,f,,
,,,,,,,,8515,2022-04-06_18h06.53.449,ImplicitInfinitySC-SLOWTASK,2021.2.3,Win32,59.98440405,,,,space,1.0485,,,,,,,,,,f,1,1.5146,space,0,40,40,107,1,A pencil is used to write,f,1.6237,
,,,,,,,,8515,2022-04-06_18h06.53.449,ImplicitInfinitySC-SLOWTASK,2021.2.3,Win32,59.98440405,,,,space,1.1453,,,,,,,,,,j,1,2.204,,0,41,41,5,1,A minute can go on forever,j,,
,,,,,,,,8515,2022-04-06_18h06.53.449,ImplicitInfinitySC-SLOWTASK,2021.2.3,Win32,59.98440405,,,,space,0.7072,,,,,,,,,,f,1,2.3124,,0,42,42,72,1,Mushrooms reproduce,f,,
,,,,,,,,8515,2022-04-06_18h06.53.449,ImplicitInfinitySC-SLOWTASK,2021.2.3,Win32,59.98440405,,,,space,0.6036,,,,,,,,,,j,0,2.8685,,0,43,43,39,1,Numbers can always be further divided,f,,
,,,,,,,,8515,2022-04-06_18h06.53.449,ImplicitInfinitySC-SLOWTASK,2021.2.3,Win32,59.98440405,,,,space,0.7151,,,,,,,,,,j,1,2.0053,,0,44,44,3,1,A minute is endless,j,,
,,,,,,,,8515,2022-04-06_18h06.53.449,ImplicitInfinitySC-SLOWTASK,2021.2.3,Win32,59.98440405,,,,space,0.5422,,,,,,,,,,f,0,3.53,,0,45,45,63,1,Color can be put in a container,j,,
,,,,,,,,8515,2022-04-06_18h06.53.449,ImplicitInfinitySC-SLOWTASK,2021.2.3,Win32,59.98440405,,,,space,0.5554,,,,,,,,,,f,1,1.5734,,0,46,46,95,1,Yellow is a color,f,,
,,,,,,,,8515,2022-04-06_18h06.53.449,ImplicitInfinitySC-SLOWTASK,2021.2.3,Win32,59.98440405,,,,space,0.8621,,,,,,,,,,j,1,2.8483,,0,47,47,123,1,Mississippi is a country,j,,
,,,,,,,,8515,2022-04-06_18h06.53.449,ImplicitInfinitySC-SLOWTASK,2021.2.3,Win32,59.98440405,,,,space,0.5502,,,,,,,,,,f,1,1.524,,0,48,48,71,1,Oaks reproduce,f,,
,,,,,,,,8515,2022-04-06_18h06.53.449,ImplicitInfinitySC-SLOWTASK,2021.2.3,Win32,59.98440405,,,,space,0.4733,,,,,,,,,,j,1,1.485,,0,49,49,119,1,A motorcycle is a person,j,,
,,,,,,,,8515,2022-04-06_18h06.53.449,ImplicitInfinitySC-SLOWTASK,2021.2.3,Win32,59.98440405,,,,space,0.5107,,,,,,,,,,f,1,2.0828,,0,50,50,76,1,Pollen has a molecular structure,f,,
,,,,,,,,8515,2022-04-06_18h06.53.449,ImplicitInfinitySC-SLOWTASK,2021.2.3,Win32,59.98440405,,,,space,0.4821,,,,,,,,,,j,1,2.0883,,0,51,51,117,1,Dolphins cannot swim in the ocean,j,,
,,,,,,,,8515,2022-04-06_18h06.53.449,ImplicitInfinitySC-SLOWTASK,2021.2.3,Win32,59.98440405,,,,space,1.5164,,,,,,,,,,f,0,3.0675,,0,52,52,43,1,The number five is endless,j,,
,,,,,,,,8515,2022-04-06_18h06.53.449,ImplicitInfinitySC-SLOWTASK,2021.2.3,Win32,59.98440405,,,,space,0.5658,,,,,,,,,,f,1,1.6344,,0,53,53,100,1,A truck is a vehicle,f,,
,,,,,,,,8515,2022-04-06_18h06.53.449,ImplicitInfinitySC-SLOWTASK,2021.2.3,Win32,59.98440405,,,,space,0.7384,,,,,,,,,,j,1,1.7661,,0,54,54,113,1,Magenta is a shape,j,,
,,,,,,,,8515,2022-04-06_18h06.53.449,ImplicitInfinitySC-SLOWTASK,2021.2.3,Win32,59.98440405,,,,space,0.7499,,,,,,,,,,j,0,3.5547,,0,55,55,23,1,Time can always be further divided,f,,
,,,,,,,,8515,2022-04-06_18h06.53.449,ImplicitInfinitySC-SLOWTASK,2021.2.3,Win32,59.98440405,,,,space,0.7673,,,,,,,,,,f,0,3.6403,,0,56,56,46,1,The number five cannot always be further divided,j,,
,,,,,,,,8515,2022-04-06_18h06.53.449,ImplicitInfinitySC-SLOWTASK,2021.2.3,Win32,59.98440405,,,,space,0.5876,,,,,,,,,,f,1,2.5921,,0,57,57,88,1,This sentence is written in English,f,,
,,,,,,,,8515,2022-04-06_18h06.53.449,ImplicitInfinitySC-SLOWTASK,2021.2.3,Win32,59.98440405,,,,space,0.5109,,,,,,,,,,j,1,3.7481,,0,58,58,24,1,Space is finite,j,,
,,,,,,,,8515,2022-04-06_18h06.53.449,ImplicitInfinitySC-SLOWTASK,2021.2.3,Win32,59.98440405,,,,space,0.4483,,,,,,,,,,j,1,1.9654,,0,59,59,114,1,Lightbulbs are made of clay,j,,
,,,,,,,,8515,2022-04-06_18h06.53.449,ImplicitInfinitySC-SLOWTASK,2021.2.3,Win32,59.98440405,,,,space,0.4336,,,,,,,,,,j,0,2.5948,,0,60,60,0,1,A minute is finite,f,,
,,,,,,,,8515,2022-04-06_18h06.53.449,ImplicitInfinitySC-SLOWTASK,2021.2.3,Win32,59.98440405,,,,space,0.4674,,,,,,,,,,j,1,2.477,,0,61,61,111,1,A circle is a flavor,j,,
,,,,,,,,8515,2022-04-06_18h06.53.449,ImplicitInfinitySC-SLOWTASK,2021.2.3,Win32,59.98440405,,,,space,0.5595,,,,,,,,,,j,1,3.5319,,0,62,62,30,1,Space cannot always be further divided,j,,
,,,,,,,,8515,2022-04-06_18h06.53.449,ImplicitInfinitySC-SLOWTASK,2021.2.3,Win32,59.98440405,,,,space,0.9936,,,,,,,,,,j,1,5.1463,,0,63,63,80,1,Mittens need nutrients,j,,
,,,,,,,,8515,2022-04-06_18h06.53.449,ImplicitInfinitySC-SLOWTASK,2021.2.3,Win32,59.98440405,,,,space,0.4717,,,,,,,,,,j,1,2.728,,0,64,64,86,1,Words have a molecular structure,j,,
,,,,,,,,8515,2022-04-06_18h06.53.449,ImplicitInfinitySC-SLOWTASK,2021.2.3,Win32,59.98440405,,,,space,0.4709,,,,,,,,,,j,1,2.1999,,0,65,65,36,1,Numbers cannot go on forever,j,,
,,,,,,,,8515,2022-04-06_18h06.53.449,ImplicitInfinitySC-SLOWTASK,2021.2.3,Win32,59.98440405,,,,space,0.5043,,,,,,,,,,f,1,3.3587,,0,66,66,21,1,Time can go on forever,f,,
,,,,,,,,8515,2022-04-06_18h06.53.449,ImplicitInfinitySC-SLOWTASK,2021.2.3,Win32,59.98440405,,,,space,0.5242,,,,,,,,,,f,0,1.9529,,0,67,67,41,1,The number five is infinite,j,,
,,,,,,,,8515,2022-04-06_18h06.53.449,ImplicitInfinitySC-SLOWTASK,2021.2.3,Win32,59.98440405,,,,space,0.8521,,,,,,,,,,f,1,2.6006,,0,68,68,10,1,An inch has an end,f,,
,,,,,,,,8515,2022-04-06_18h06.53.449,ImplicitInfinitySC-SLOWTASK,2021.2.3,Win32,59.98440405,,,,space,0.5671,,,,,,,,,,j,1,1.7747,,0,69,69,110,1,A triangle is an animal,j,,
,,,,,,,,8515,2022-04-06_18h06.53.449,ImplicitInfinitySC-SLOWTASK,2021.2.3,Win32,59.98440405,,,,space,0.4779,,,,,,,,,,f,0,3.1991,,0,70,70,125,1,There are ninty states in the United States,j,,
,,,,,,,,8515,2022-04-06_18h06.53.449,ImplicitInfinitySC-SLOWTASK,2021.2.3,Win32,59.98440405,,,,space,0.5357,,,,,,,,,,f,1,2.2162,,0,71,71,68,1,Algae is alive,f,,
,,,,,,,,8515,2022-04-06_18h06.53.449,ImplicitInfinitySC-SLOWTASK,2021.2.3,Win32,59.98440405,,,,space,0.5103,,,,,,,,,,j,1,3.0283,,0,72,72,112,1,Dinosaurs are not extinct,j,,
,,,,,,,,8515,2022-04-06_18h06.53.449,ImplicitInfinitySC-SLOWTASK,2021.2.3,Win32,59.98440405,,,,space,0.543,,,,,,,,,,f,1,2.0215,,0,73,73,56,1,Diamonds have a molecular structure,f,,
,,,,,,,,8515,2022-04-06_18h06.53.449,ImplicitInfinitySC-SLOWTASK,2021.2.3,Win32,59.98440405,,,,space,0.501,,,,,,,,,,j,1,1.7555,,0,74,74,127,1,A zebra is used to write,j,,
,,,,,,,,8515,2022-04-06_18h06.53.449,ImplicitInfinitySC-SLOWTASK,2021.2.3,Win32,59.98440405,,,,space,0.3945,,,,,,,,,,j,1,1.4649,,0,75,75,58,1,Clocks are alive,j,,
,,,,,,,,8515,2022-04-06_18h06.53.449,ImplicitInfinitySC-SLOWTASK,2021.2.3,Win32,59.98440405,,,,space,1.7687,,,,,,,,,,f,1,2.8716,,0,76,76,73,1,Bubbles can be put in a container,f,,
,,,,,,,,8515,2022-04-06_18h06.53.449,ImplicitInfinitySC-SLOWTASK,2021.2.3,Win32,59.98440405,,,,space,0.4607,,,,,,,,,,f,1,1.3558,,0,77,77,102,1,The Earth is a planet,f,,
,,,,,,,,8515,2022-04-06_18h06.53.449,ImplicitInfinitySC-SLOWTASK,2021.2.3,Win32,59.98440405,,,,space,0.4072,,,,,,,,,,j,1,1.5923,,0,78,78,60,1,Robots need nutrients,j,,
,,,,,,,,8515,2022-04-06_18h06.53.449,ImplicitInfinitySC-SLOWTASK,2021.2.3,Win32,59.98440405,,,,space,0.3748,,,,,,,,,,j,1,2.6011,,0,79,79,32,1,Numbers are finite,j,,
,,,,,,,,8515,2022-04-06_18h06.53.449,ImplicitInfinitySC-SLOWTASK,2021.2.3,Win32,59.98440405,,,,space,0.434,,,,,,,,,,f,1,1.6592,,0,80,80,89,1,A square is a shape,f,,
,,,,,,,,8515,2022-04-06_18h06.53.449,ImplicitInfinitySC-SLOWTASK,2021.2.3,Win32,59.98440405,,,,,,,,,,,,,,,,,,,,,,,,,,,
