SlowInstrKey.keys,SlowInstrKey.rt,SlowInstrLoop.thisRepN,SlowInstrLoop.thisTrialN,SlowInstrLoop.thisN,SlowInstrLoop.thisIndex,SlowInstrLoop.ran,SlowInstructions,participant,date,expName,psychopyVersion,OS,frameRate,key_resp_5.keys,key_resp_5.corr,key_resp_5.rt,key_resp_4.keys,key_resp_4.rt,slowpracticeloop.thisRepN,slowpracticeloop.thisTrialN,slowpracticeloop.thisN,slowpracticeloop.thisIndex,slowpracticeloop.ran,practicetext,practicecorrect,key_resp_3.keys,key_resp_3.rt,SlowKey.keys,SlowKey.corr,SlowKey.rt,encouragekey.keys,SlowLoop.thisRepN,SlowLoop.thisTrialN,SlowLoop.thisN,SlowLoop.thisIndex,SlowLoop.ran,Statement,Correct,encouragekey.rt,endstudykey.keys,endstudykey.rt
space,8.8075,0,0,0,0,1,"You will be shown a total of 80 statements pertaining to mathematics, science, and social concepts. Your task is to determine whether each statement is true or false. Some statements will be difficult and some will be easier.  We do not expect you to know the correct answer for all 80 statements.  Press SPACE to Continue",8535,2022-04-06_19h00.17.252,ImplicitInfinitySC-SLOWTASK,2021.2.3,Win32,59.99160118,,,,,,,,,,,,,,,,,,,,,,,,,,,,
space,7.5402,0,1,1,1,1,"We urge you to try your best and take your time. Each statement will appear on your screen and you will have 10 seconds to decide if it is true or false. You will hear a beep at 6 seconds that will prompt you to respond within the next 4 seconds. If you fail to respond within this time, the trial will be counted as incorrect and the next statement will appear. Press SPACE to continue",8535,2022-04-06_19h00.17.252,ImplicitInfinitySC-SLOWTASK,2021.2.3,Win32,59.99160118,,,,,,,,,,,,,,,,,,,,,,,,,,,,
space,23.3564,0,2,2,2,1,"If the statement is true, you will press the “F” key on your keyboard with your left pointer finger; if the statement is false, you will press the “J” key on your keyboard with your right pointer finger. Press SPACE to continue",8535,2022-04-06_19h00.17.252,ImplicitInfinitySC-SLOWTASK,2021.2.3,Win32,59.99160118,,,,,,,,,,,,,,,,,,,,,,,,,,,,
space,1.7677,0,3,3,3,1,Take your time and go slowly! You have 10 seconds to answer! Press SPACE to continue. ,8535,2022-04-06_19h00.17.252,ImplicitInfinitySC-SLOWTASK,2021.2.3,Win32,59.99160118,,,,,,,,,,,,,,,,,,,,,,,,,,,,
,,,,,,,,8535,2022-04-06_19h00.17.252,ImplicitInfinitySC-SLOWTASK,2021.2.3,Win32,59.99160118,f,1,2.0371,space,1.4579,0,0,0,3,1,A clock is used to tell time,f,,,,,,,,,,,,,,,,
,,,,,,,,8535,2022-04-06_19h00.17.252,ImplicitInfinitySC-SLOWTASK,2021.2.3,Win32,59.99160118,j,1,2.1226,space,1.0578,0,1,1,6,1,Jupiter is the planet we live on,j,,,,,,,,,,,,,,,,
,,,,,,,,8535,2022-04-06_19h00.17.252,ImplicitInfinitySC-SLOWTASK,2021.2.3,Win32,59.99160118,f,1,2.3534,space,0.8343,0,2,2,4,1,Humans cannot breathe water,f,,,,,,,,,,,,,,,,
,,,,,,,,8535,2022-04-06_19h00.17.252,ImplicitInfinitySC-SLOWTASK,2021.2.3,Win32,59.99160118,f,1,2.4525,space,0.7644,0,3,3,1,1,Dinosaurs are extinct,f,,,,,,,,,,,,,,,,
,,,,,,,,8535,2022-04-06_19h00.17.252,ImplicitInfinitySC-SLOWTASK,2021.2.3,Win32,59.99160118,f,1,2.5455,space,0.9619,0,4,4,0,1,A circle is a shape,f,,,,,,,,,,,,,,,,
,,,,,,,,8535,2022-04-06_19h00.17.252,ImplicitInfinitySC-SLOWTASK,2021.2.3,Win32,59.99160118,j,1,2.4196,space,0.8076,0,5,5,7,1,The Earth is a star,j,,,,,,,,,,,,,,,,
,,,,,,,,8535,2022-04-06_19h00.17.252,ImplicitInfinitySC-SLOWTASK,2021.2.3,Win32,59.99160118,j,1,2.1739,space,0.6131,0,6,6,8,1,Mississippi is a country,j,,,,,,,,,,,,,,,,
,,,,,,,,8535,2022-04-06_19h00.17.252,ImplicitInfinitySC-SLOWTASK,2021.2.3,Win32,59.99160118,j,1,2.1055,space,0.5847,0,7,7,5,1,A truck is an animal,j,,,,,,,,,,,,,,,,
,,,,,,,,8535,2022-04-06_19h00.17.252,ImplicitInfinitySC-SLOWTASK,2021.2.3,Win32,59.99160118,j,1,2.0309,space,0.9362,0,8,8,9,1,Humans cannot eat food,j,,,,,,,,,,,,,,,,
,,,,,,,,8535,2022-04-06_19h00.17.252,ImplicitInfinitySC-SLOWTASK,2021.2.3,Win32,59.99160118,f,1,1.6989,space,0.9984,0,9,9,2,1,Magenta is a color,f,,,,,,,,,,,,,,,,
,,,,,,,,8535,2022-04-06_19h00.17.252,ImplicitInfinitySC-SLOWTASK,2021.2.3,Win32,59.99160118,,,,space,1.1082,,,,,,,,space,4.001,j,1,2.1033,,0,0,0,85,1,Thoughts are composed of matter,j,,,
,,,,,,,,8535,2022-04-06_19h00.17.252,ImplicitInfinitySC-SLOWTASK,2021.2.3,Win32,59.99160118,,,,space,0.6412,,,,,,,,,,f,1,1.6648,,0,1,1,88,1,This sentence is written in English,f,,,
,,,,,,,,8535,2022-04-06_19h00.17.252,ImplicitInfinitySC-SLOWTASK,2021.2.3,Win32,59.99160118,,,,space,0.7469,,,,,,,,,,j,1,2.1009,,0,2,2,41,1,The number five is infinite,j,,,
,,,,,,,,8535,2022-04-06_19h00.17.252,ImplicitInfinitySC-SLOWTASK,2021.2.3,Win32,59.99160118,,,,space,1.2391,,,,,,,,,,f,1,2.2001,,0,3,3,37,1,Numbers can go on forever,f,,,
,,,,,,,,8535,2022-04-06_19h00.17.252,ImplicitInfinitySC-SLOWTASK,2021.2.3,Win32,59.99160118,,,,space,0.8519,,,,,,,,,,j,1,1.5144,,0,4,4,113,1,Magenta is a shape,j,,,
,,,,,,,,8535,2022-04-06_19h00.17.252,ImplicitInfinitySC-SLOWTASK,2021.2.3,Win32,59.99160118,,,,space,0.6548,,,,,,,,,,f,1,3.0951,,0,5,5,56,1,Diamonds have a molecular structure,f,,,
,,,,,,,,8535,2022-04-06_19h00.17.252,ImplicitInfinitySC-SLOWTASK,2021.2.3,Win32,59.99160118,,,,space,0.7301,,,,,,,,,,f,1,2.5891,,0,6,6,19,1,Time is endless,f,,,
,,,,,,,,8535,2022-04-06_19h00.17.252,ImplicitInfinitySC-SLOWTASK,2021.2.3,Win32,59.99160118,,,,space,0.5447,,,,,,,,,,f,1,1.315,,0,7,7,107,1,A pencil is used to write,f,,,
,,,,,,,,8535,2022-04-06_19h00.17.252,ImplicitInfinitySC-SLOWTASK,2021.2.3,Win32,59.99160118,,,,space,1.1683,,,,,,,,,,j,1,2.3509,,0,8,8,32,1,Numbers are finite,j,,,
,,,,,,,,8535,2022-04-06_19h00.17.252,ImplicitInfinitySC-SLOWTASK,2021.2.3,Win32,59.99160118,,,,space,0.7883,,,,,,,,,,j,1,1.2081,,0,9,9,110,1,A triangle is an animal,j,,,
,,,,,,,,8535,2022-04-06_19h00.17.252,ImplicitInfinitySC-SLOWTASK,2021.2.3,Win32,59.99160118,,,,space,0.6199,,,,,,,,,,j,1,1.5891,,0,10,10,122,1,The Earth is a star,j,,,
,,,,,,,,8535,2022-04-06_19h00.17.252,ImplicitInfinitySC-SLOWTASK,2021.2.3,Win32,59.99160118,,,,space,0.7093,,,,,,,,,,f,1,2.1894,,0,11,11,105,1,There are fifty states in the United States,f,,,
,,,,,,,,8535,2022-04-06_19h00.17.252,ImplicitInfinitySC-SLOWTASK,2021.2.3,Win32,59.99160118,,,,space,0.7797,,,,,,,,,,j,1,2.2478,,0,12,12,60,1,Robots need nutrients,j,,,
,,,,,,,,8535,2022-04-06_19h00.17.252,ImplicitInfinitySC-SLOWTASK,2021.2.3,Win32,59.99160118,,,,space,0.9164,,,,,,,,,,f,1,2.0013,,0,13,13,4,1,A minute cannot go on forever,f,,,
,,,,,,,,8535,2022-04-06_19h00.17.252,ImplicitInfinitySC-SLOWTASK,2021.2.3,Win32,59.99160118,,,,space,0.8048,,,,,,,,,,f,1,2.3877,,0,14,14,33,1,Numbers are infinite,f,,,
,,,,,,,,8535,2022-04-06_19h00.17.252,ImplicitInfinitySC-SLOWTASK,2021.2.3,Win32,59.99160118,,,,space,0.6405,,,,,,,,,,f,1,1.8593,,0,15,15,92,1,Dinosaurs are extinct,f,,,
,,,,,,,,8535,2022-04-06_19h00.17.252,ImplicitInfinitySC-SLOWTASK,2021.2.3,Win32,59.99160118,,,,space,0.8765,,,,,,,,,,f,1,1.7606,,0,16,16,10,1,An inch has an end,f,,,
,,,,,,,,8535,2022-04-06_19h00.17.252,ImplicitInfinitySC-SLOWTASK,2021.2.3,Win32,59.99160118,,,,space,0.5369,,,,,,,,,,j,1,1.6541,,0,17,17,121,1,Jupiter is the planet we live on,j,,,
,,,,,,,,8535,2022-04-06_19h00.17.252,ImplicitInfinitySC-SLOWTASK,2021.2.3,Win32,59.99160118,,,,space,0.8476,,,,,,,,,,j,1,4.1185,,0,18,18,83,1,Songs can be put in a container,j,,,
,,,,,,,,8535,2022-04-06_19h00.17.252,ImplicitInfinitySC-SLOWTASK,2021.2.3,Win32,59.99160118,,,,space,0.8,,,,,,,,,,f,1,3.1586,,0,19,19,40,1,The number five is finite,f,,,
,,,,,,,,8535,2022-04-06_19h00.17.252,ImplicitInfinitySC-SLOWTASK,2021.2.3,Win32,59.99160118,,,,space,0.7762,,,,,,,,,,f,1,1.4002,,0,20,20,91,1,A circle is a shape,f,,,
,,,,,,,,8535,2022-04-06_19h00.17.252,ImplicitInfinitySC-SLOWTASK,2021.2.3,Win32,59.99160118,,,,space,0.7636,,,,,,,,,,f,1,1.3334,,0,21,21,0,1,A minute is finite,f,,,
,,,,,,,,8535,2022-04-06_19h00.17.252,ImplicitInfinitySC-SLOWTASK,2021.2.3,Win32,59.99160118,,,,space,0.8743,,,,,,,,,,f,1,2.9314,,0,22,22,29,1,Space can go on forever,f,,,
,,,,,,,,8535,2022-04-06_19h00.17.252,ImplicitInfinitySC-SLOWTASK,2021.2.3,Win32,59.99160118,,,,space,0.657,,,,,,,,,,f,1,2.1154,,0,23,23,21,1,Time can go on forever,f,,,
,,,,,,,,8535,2022-04-06_19h00.17.252,ImplicitInfinitySC-SLOWTASK,2021.2.3,Win32,59.99160118,,,,space,0.935,,,,,,,,,,j,1,4.3057,,0,24,24,24,1,Space is finite,j,,,
,,,,,,,,8535,2022-04-06_19h00.17.252,ImplicitInfinitySC-SLOWTASK,2021.2.3,Win32,59.99160118,,,,space,0.9315,,,,,,,,,,j,1,1.7836,,0,25,25,13,1,An inch can go on forever,j,,,
,,,,,,,,8535,2022-04-06_19h00.17.252,ImplicitInfinitySC-SLOWTASK,2021.2.3,Win32,59.99160118,,,,space,0.656,,,,,,,,,,j,1,2.1173,,0,26,26,82,1,Stones reproduce,j,,,
,,,,,,,,8535,2022-04-06_19h00.17.252,ImplicitInfinitySC-SLOWTASK,2021.2.3,Win32,59.99160118,,,,space,0.9293,,,,,,,,,,j,0,1.5797,,0,27,27,71,1,Oaks reproduce,f,,,
,,,,,,,,8535,2022-04-06_19h00.17.252,ImplicitInfinitySC-SLOWTASK,2021.2.3,Win32,59.99160118,,,,space,0.7059,,,,,,,,,,f,1,3.5244,,0,28,28,7,1,A minute can always be further divided,f,,,
,,,,,,,,8535,2022-04-06_19h00.17.252,ImplicitInfinitySC-SLOWTASK,2021.2.3,Win32,59.99160118,,,,space,0.7596,,,,,,,,,,j,1,2.2105,,0,29,29,80,1,Mittens need nutrients,j,,,
,,,,,,,,8535,2022-04-06_19h00.17.252,ImplicitInfinitySC-SLOWTASK,2021.2.3,Win32,59.99160118,,,,space,0.6923,,,,,,,,,,j,1,1.637,,0,30,30,119,1,A motorcycle is a person,j,,,
,,,,,,,,8535,2022-04-06_19h00.17.252,ImplicitInfinitySC-SLOWTASK,2021.2.3,Win32,59.99160118,,,,space,1.2041,,,,,,,,,,f,1,1.7529,,0,31,31,27,1,Space is endless,f,,,
,,,,,,,,8535,2022-04-06_19h00.17.252,ImplicitInfinitySC-SLOWTASK,2021.2.3,Win32,59.99160118,,,,space,0.8532,,,,,,,,,,j,1,2.1867,,0,32,32,66,1,Music has a molecular structure,j,,,
,,,,,,,,8535,2022-04-06_19h00.17.252,ImplicitInfinitySC-SLOWTASK,2021.2.3,Win32,59.99160118,,,,space,0.7244,,,,,,,,,,f,1,1.8249,,0,33,33,97,1,Dolphins can swim in the ocean,f,,,
,,,,,,,,8535,2022-04-06_19h00.17.252,ImplicitInfinitySC-SLOWTASK,2021.2.3,Win32,59.99160118,,,,space,1.1144,,,,,,,,,,j,1,1.7992,,0,34,34,61,1,Sailboats reproduce,j,,,
,,,,,,,,8535,2022-04-06_19h00.17.252,ImplicitInfinitySC-SLOWTASK,2021.2.3,Win32,59.99160118,,,,space,0.5154,,,,,,,,,,j,1,4.8404,,0,35,35,9,1,An inch is infinite,j,,,
,,,,,,,,8535,2022-04-06_19h00.17.252,ImplicitInfinitySC-SLOWTASK,2021.2.3,Win32,59.99160118,,,,space,0.5814,,,,,,,,,,f,1,1.3054,,0,36,36,2,1,A minute has an end,f,,,
,,,,,,,,8535,2022-04-06_19h00.17.252,ImplicitInfinitySC-SLOWTASK,2021.2.3,Win32,59.99160118,,,,space,0.7947,,,,,,,,,,f,1,1.4455,,0,37,37,48,1,Crocodiles are alive,f,,,
,,,,,,,,8535,2022-04-06_19h00.17.252,ImplicitInfinitySC-SLOWTASK,2021.2.3,Win32,59.99160118,,,,space,1.3354,,,,,,,,,,f,0,1.6554,,0,38,38,108,1,This sentence is written in Spanish,j,,,
,,,,,,,,8535,2022-04-06_19h00.17.252,ImplicitInfinitySC-SLOWTASK,2021.2.3,Win32,59.99160118,,,,space,0.8008,,,,,,,,,,f,1,1.9603,,0,39,39,50,1,Turtles need nutrients,f,,,
,,,,,,,,8535,2022-04-06_19h00.17.252,ImplicitInfinitySC-SLOWTASK,2021.2.3,Win32,59.99160118,,,,space,0.8705,,,,,,,,,,j,1,1.2899,space,0,40,40,11,1,An inch is endless,j,0.4367,,
,,,,,,,,8535,2022-04-06_19h00.17.252,ImplicitInfinitySC-SLOWTASK,2021.2.3,Win32,59.99160118,,,,space,1.0188,,,,,,,,,,j,1,3.0728,,0,41,41,18,1,Time has an end,j,,,
,,,,,,,,8535,2022-04-06_19h00.17.252,ImplicitInfinitySC-SLOWTASK,2021.2.3,Win32,59.99160118,,,,space,0.9299,,,,,,,,,,j,1,1.8,,0,42,42,59,1,Comets are alive,j,,,
,,,,,,,,8535,2022-04-06_19h00.17.252,ImplicitInfinitySC-SLOWTASK,2021.2.3,Win32,59.99160118,,,,space,0.9708,,,,,,,,,,f,1,1.3002,,0,43,43,51,1,Tigers reproduce,f,,,
,,,,,,,,8535,2022-04-06_19h00.17.252,ImplicitInfinitySC-SLOWTASK,2021.2.3,Win32,59.99160118,,,,space,0.972,,,,,,,,,,j,1,2.4514,,0,44,44,1,1,A minute is infinite,j,,,
,,,,,,,,8535,2022-04-06_19h00.17.252,ImplicitInfinitySC-SLOWTASK,2021.2.3,Win32,59.99160118,,,,space,0.7324,,,,,,,,,,f,1,1.994,,0,45,45,74,1,Foam is composed of matter,f,,,
,,,,,,,,8535,2022-04-06_19h00.17.252,ImplicitInfinitySC-SLOWTASK,2021.2.3,Win32,59.99160118,,,,space,0.9483,,,,,,,,,,j,1,1.7603,,0,46,46,43,1,The number five is endless,j,,,
,,,,,,,,8535,2022-04-06_19h00.17.252,ImplicitInfinitySC-SLOWTASK,2021.2.3,Win32,59.99160118,,,,space,0.9564,,,,,,,,,,j,1,1.483,,0,47,47,62,1,Helicopters reproduce,j,,,
,,,,,,,,8535,2022-04-06_19h00.17.252,ImplicitInfinitySC-SLOWTASK,2021.2.3,Win32,59.99160118,,,,space,0.6309,,,,,,,,,,j,1,1.4713,,0,48,48,79,1,Forks are alive,j,,,
,,,,,,,,8535,2022-04-06_19h00.17.252,ImplicitInfinitySC-SLOWTASK,2021.2.3,Win32,59.99160118,,,,space,1.1351,,,,,,,,,,j,1,1.8309,,0,49,49,5,1,A minute can go on forever,j,,,
,,,,,,,,8535,2022-04-06_19h00.17.252,ImplicitInfinitySC-SLOWTASK,2021.2.3,Win32,59.99160118,,,,space,1.1109,,,,,,,,,,j,1,1.2536,,0,50,50,120,1,A truck is an animal,j,,,
,,,,,,,,8535,2022-04-06_19h00.17.252,ImplicitInfinitySC-SLOWTASK,2021.2.3,Win32,59.99160118,,,,space,0.8525,,,,,,,,,,j,1,1.6972,,0,51,51,124,1,The president of the United States is Oprah,j,,,
,,,,,,,,8535,2022-04-06_19h00.17.252,ImplicitInfinitySC-SLOWTASK,2021.2.3,Win32,59.99160118,,,,space,0.7453,,,,,,,,,,f,1,1.7753,,0,52,52,68,1,Algae is alive,f,,,
,,,,,,,,8535,2022-04-06_19h00.17.252,ImplicitInfinitySC-SLOWTASK,2021.2.3,Win32,59.99160118,,,,space,0.5362,,,,,,,,,,f,1,2.6988,,0,53,53,23,1,Time can always be further divided,f,,,
,,,,,,,,8535,2022-04-06_19h00.17.252,ImplicitInfinitySC-SLOWTASK,2021.2.3,Win32,59.99160118,,,,space,0.9257,,,,,,,,,,f,1,2.6411,,0,54,54,47,1,The number five can always be further divided,f,,,
,,,,,,,,8535,2022-04-06_19h00.17.252,ImplicitInfinitySC-SLOWTASK,2021.2.3,Win32,59.99160118,,,,space,0.5486,,,,,,,,,,f,1,1.7092,,0,55,55,103,1,The United States is a country,f,,,
,,,,,,,,8535,2022-04-06_19h00.17.252,ImplicitInfinitySC-SLOWTASK,2021.2.3,Win32,59.99160118,,,,space,0.7927,,,,,,,,,,f,1,1.9654,,0,56,56,90,1,A triangle is not an animal,f,,,
,,,,,,,,8535,2022-04-06_19h00.17.252,ImplicitInfinitySC-SLOWTASK,2021.2.3,Win32,59.99160118,,,,space,0.8562,,,,,,,,,,f,1,2.0892,,0,57,57,55,1,Concrete is composed of matter,f,,,
,,,,,,,,8535,2022-04-06_19h00.17.252,ImplicitInfinitySC-SLOWTASK,2021.2.3,Win32,59.99160118,,,,space,0.7678,,,,,,,,,,f,1,1.3715,,0,58,58,93,1,Magenta is a color,f,,,
,,,,,,,,8535,2022-04-06_19h00.17.252,ImplicitInfinitySC-SLOWTASK,2021.2.3,Win32,59.99160118,,,,space,0.7658,,,,,,,,,,f,1,1.6823,,0,59,59,77,1,Saliva has a molecular structure,f,,,
,,,,,,,,8535,2022-04-06_19h00.17.252,ImplicitInfinitySC-SLOWTASK,2021.2.3,Win32,59.99160118,,,,space,0.7368,,,,,,,,,,f,1,1.2929,,0,60,60,76,1,Pollen has a molecular structure,f,,,
,,,,,,,,8535,2022-04-06_19h00.17.252,ImplicitInfinitySC-SLOWTASK,2021.2.3,Win32,59.99160118,,,,space,0.6757,,,,,,,,,,f,1,1.9581,,0,61,61,53,1,Bricks can be put in a container,f,,,
,,,,,,,,8535,2022-04-06_19h00.17.252,ImplicitInfinitySC-SLOWTASK,2021.2.3,Win32,59.99160118,,,,space,0.8425,,,,,,,,,,j,1,3.0376,,0,62,62,114,1,Lightbulbs are made of clay,j,,,
,,,,,,,,8535,2022-04-06_19h00.17.252,ImplicitInfinitySC-SLOWTASK,2021.2.3,Win32,59.99160118,,,,space,0.6632,,,,,,,,,,f,1,1.9473,,0,63,63,73,1,Bubbles can be put in a container,f,,,
,,,,,,,,8535,2022-04-06_19h00.17.252,ImplicitInfinitySC-SLOWTASK,2021.2.3,Win32,59.99160118,,,,space,0.8657,,,,,,,,,,j,1,1.7933,,0,64,64,117,1,Dolphins cannot swim in the ocean,j,,,
,,,,,,,,8535,2022-04-06_19h00.17.252,ImplicitInfinitySC-SLOWTASK,2021.2.3,Win32,59.99160118,,,,space,0.7264,,,,,,,,,,j,1,1.1586,,0,65,65,78,1,Hammers are alive,j,,,
,,,,,,,,8535,2022-04-06_19h00.17.252,ImplicitInfinitySC-SLOWTASK,2021.2.3,Win32,59.99160118,,,,space,0.6498,,,,,,,,,,j,1,2.1812,,0,66,66,46,1,The number five cannot always be further divided,j,,,
,,,,,,,,8535,2022-04-06_19h00.17.252,ImplicitInfinitySC-SLOWTASK,2021.2.3,Win32,59.99160118,,,,space,0.6607,,,,,,,,,,f,1,2.1853,,0,67,67,15,1,An inch can be always further divided,f,,,
,,,,,,,,8535,2022-04-06_19h00.17.252,ImplicitInfinitySC-SLOWTASK,2021.2.3,Win32,59.99160118,,,,space,0.723,,,,,,,,,,j,1,1.8937,,0,68,68,67,1,Gravity has a molecular structure,j,,,
,,,,,,,,8535,2022-04-06_19h00.17.252,ImplicitInfinitySC-SLOWTASK,2021.2.3,Win32,59.99160118,,,,space,0.9057,,,,,,,,,,f,1,2.1823,,0,69,69,12,1,An inch cannot go on forever,f,,,
,,,,,,,,8535,2022-04-06_19h00.17.252,ImplicitInfinitySC-SLOWTASK,2021.2.3,Win32,59.99160118,,,,space,1.263,,,,,,,,,,j,1,1.5139,,0,70,70,123,1,Mississippi is a country,j,,,
,,,,,,,,8535,2022-04-06_19h00.17.252,ImplicitInfinitySC-SLOWTASK,2021.2.3,Win32,59.99160118,,,,space,0.6974,,,,,,,,,,f,1,1.9823,,0,71,71,44,1,The number five cannot go on forever,f,,,
,,,,,,,,8535,2022-04-06_19h00.17.252,ImplicitInfinitySC-SLOWTASK,2021.2.3,Win32,59.99160118,,,,space,0.8535,,,,,,,,,,j,1,1.7138,,0,72,72,111,1,A circle is a flavor,j,,,
,,,,,,,,8535,2022-04-06_19h00.17.252,ImplicitInfinitySC-SLOWTASK,2021.2.3,Win32,59.99160118,,,,space,1.1754,,,,,,,,,,j,1,3.0262,,0,73,73,6,1,A minute cannot always be further divided,j,,,
,,,,,,,,8535,2022-04-06_19h00.17.252,ImplicitInfinitySC-SLOWTASK,2021.2.3,Win32,59.99160118,,,,space,0.7177,,,,,,,,,,j,1,1.5237,,0,74,74,84,1,Silence is composed of matter,j,,,
,,,,,,,,8535,2022-04-06_19h00.17.252,ImplicitInfinitySC-SLOWTASK,2021.2.3,Win32,59.99160118,,,,space,1.0436,,,,,,,,,,j,1,1.3427,,0,75,75,115,1,Yellow is an animal,j,,,
,,,,,,,,8535,2022-04-06_19h00.17.252,ImplicitInfinitySC-SLOWTASK,2021.2.3,Win32,59.99160118,,,,space,0.745,,,,,,,,,,f,1,2.9646,,0,76,76,31,1,Space can always be further divided,f,,,
,,,,,,,,8535,2022-04-06_19h00.17.252,ImplicitInfinitySC-SLOWTASK,2021.2.3,Win32,59.99160118,,,,space,0.5659,,,,,,,,,,f,1,1.3673,,0,77,77,49,1,Pelicans are alive,f,,,
,,,,,,,,8535,2022-04-06_19h00.17.252,ImplicitInfinitySC-SLOWTASK,2021.2.3,Win32,59.99160118,,,,space,0.9619,,,,,,,,,,f,1,1.89,,0,78,78,54,1,Dumbells are composed of matter,f,,,
,,,,,,,,8535,2022-04-06_19h00.17.252,ImplicitInfinitySC-SLOWTASK,2021.2.3,Win32,59.99160118,,,,space,0.8088,,,,,,,,,,j,1,1.7923,,0,79,79,87,1,Dreams have a molecular structure,j,,,
,,,,,,,,8535,2022-04-06_19h00.17.252,ImplicitInfinitySC-SLOWTASK,2021.2.3,Win32,59.99160118,,,,space,0.882,,,,,,,,,,j,1,1.8279,,0,80,80,26,1,Space has an end,j,,,
,,,,,,,,8535,2022-04-06_19h00.17.252,ImplicitInfinitySC-SLOWTASK,2021.2.3,Win32,59.99160118,,,,,,,,,,,,,,,,,,,,,,,,,,,space,23.0521
