SlowInstrKey.keys,SlowInstrKey.rt,SlowInstrLoop.thisRepN,SlowInstrLoop.thisTrialN,SlowInstrLoop.thisN,SlowInstrLoop.thisIndex,SlowInstrLoop.ran,SlowInstructions,participant,date,expName,psychopyVersion,OS,frameRate,key_resp_5.keys,key_resp_5.corr,key_resp_5.rt,key_resp_4.keys,key_resp_4.rt,slowpracticeloop.thisRepN,slowpracticeloop.thisTrialN,slowpracticeloop.thisN,slowpracticeloop.thisIndex,slowpracticeloop.ran,practicetext,practicecorrect,key_resp_3.keys,key_resp_3.rt,SlowKey.keys,SlowKey.corr,SlowKey.rt,encouragekey.keys,SlowLoop.thisRepN,SlowLoop.thisTrialN,SlowLoop.thisN,SlowLoop.thisIndex,SlowLoop.ran,Statement,Correct,encouragekey.rt,endstudykey.keys,endstudykey.rt
space,9.3343,0,0,0,0,1,"You will be shown a total of 80 statements pertaining to mathematics, science, and social concepts. Your task is to determine whether each statement is true or false. Some statements will be difficult and some will be easier.  We do not expect you to know the correct answer for all 80 statements.  Press SPACE to Continue",8954,2022-04-06_19h45.55.239,ImplicitInfinitySC-SLOWTASK,2021.2.3,Win32,60.00960154,,,,,,,,,,,,,,,,,,,,,,,,,,,,
space,4.0036,0,1,1,1,1,"We urge you to try your best and take your time. Each statement will appear on your screen and you will have 10 seconds to decide if it is true or false. You will hear a beep at 6 seconds that will prompt you to respond within the next 4 seconds. If you fail to respond within this time, the trial will be counted as incorrect and the next statement will appear. Press SPACE to continue",8954,2022-04-06_19h45.55.239,ImplicitInfinitySC-SLOWTASK,2021.2.3,Win32,60.00960154,,,,,,,,,,,,,,,,,,,,,,,,,,,,
space,9.2818,0,2,2,2,1,"If the statement is true, you will press the “F” key on your keyboard with your left pointer finger; if the statement is false, you will press the “J” key on your keyboard with your right pointer finger. Press SPACE to continue",8954,2022-04-06_19h45.55.239,ImplicitInfinitySC-SLOWTASK,2021.2.3,Win32,60.00960154,,,,,,,,,,,,,,,,,,,,,,,,,,,,
space,3.7206,0,3,3,3,1,Take your time and go slowly! You have 10 seconds to answer! Press SPACE to continue. ,8954,2022-04-06_19h45.55.239,ImplicitInfinitySC-SLOWTASK,2021.2.3,Win32,60.00960154,,,,,,,,,,,,,,,,,,,,,,,,,,,,
,,,,,,,,8954,2022-04-06_19h45.55.239,ImplicitInfinitySC-SLOWTASK,2021.2.3,Win32,60.00960154,f,1,2.0082,space,2.4685,0,0,0,3,1,A clock is used to tell time,f,,,,,,,,,,,,,,,,
,,,,,,,,8954,2022-04-06_19h45.55.239,ImplicitInfinitySC-SLOWTASK,2021.2.3,Win32,60.00960154,j,1,1.3024,space,1.3432,0,1,1,7,1,The Earth is a star,j,,,,,,,,,,,,,,,,
,,,,,,,,8954,2022-04-06_19h45.55.239,ImplicitInfinitySC-SLOWTASK,2021.2.3,Win32,60.00960154,f,0,1.2853,space,1.6085,0,2,2,6,1,Jupiter is the planet we live on,j,,,,,,,,,,,,,,,,
,,,,,,,,8954,2022-04-06_19h45.55.239,ImplicitInfinitySC-SLOWTASK,2021.2.3,Win32,60.00960154,j,1,1.2115,space,0.9517,0,3,3,9,1,Humans cannot eat food,j,,,,,,,,,,,,,,,,
,,,,,,,,8954,2022-04-06_19h45.55.239,ImplicitInfinitySC-SLOWTASK,2021.2.3,Win32,60.00960154,f,1,1.6995,space,0.561,0,4,4,4,1,Humans cannot breathe water,f,,,,,,,,,,,,,,,,
,,,,,,,,8954,2022-04-06_19h45.55.239,ImplicitInfinitySC-SLOWTASK,2021.2.3,Win32,60.00960154,f,1,1.3528,space,0.4153,0,5,5,1,1,Dinosaurs are extinct,f,,,,,,,,,,,,,,,,
,,,,,,,,8954,2022-04-06_19h45.55.239,ImplicitInfinitySC-SLOWTASK,2021.2.3,Win32,60.00960154,j,1,1.6976,space,0.3839,0,6,6,8,1,Mississippi is a country,j,,,,,,,,,,,,,,,,
,,,,,,,,8954,2022-04-06_19h45.55.239,ImplicitInfinitySC-SLOWTASK,2021.2.3,Win32,60.00960154,j,1,1.1841,space,0.2544,0,7,7,5,1,A truck is an animal,j,,,,,,,,,,,,,,,,
,,,,,,,,8954,2022-04-06_19h45.55.239,ImplicitInfinitySC-SLOWTASK,2021.2.3,Win32,60.00960154,f,1,1.4349,space,0.3193,0,8,8,0,1,A circle is a shape,f,,,,,,,,,,,,,,,,
,,,,,,,,8954,2022-04-06_19h45.55.239,ImplicitInfinitySC-SLOWTASK,2021.2.3,Win32,60.00960154,f,1,1.6409,space,0.3026,0,9,9,2,1,Magenta is a color,f,,,,,,,,,,,,,,,,
,,,,,,,,8954,2022-04-06_19h45.55.239,ImplicitInfinitySC-SLOWTASK,2021.2.3,Win32,60.00960154,,,,space,0.3536,,,,,,,,space,0.6851,j,1,1.0687,,0,0,0,78,1,Hammers are alive,j,,,
,,,,,,,,8954,2022-04-06_19h45.55.239,ImplicitInfinitySC-SLOWTASK,2021.2.3,Win32,60.00960154,,,,space,0.2686,,,,,,,,,,j,1,1.0734,,0,1,1,110,1,A triangle is an animal,j,,,
,,,,,,,,8954,2022-04-06_19h45.55.239,ImplicitInfinitySC-SLOWTASK,2021.2.3,Win32,60.00960154,,,,space,0.4892,,,,,,,,,,f,1,1.2133,,0,2,2,88,1,This sentence is written in English,f,,,
,,,,,,,,8954,2022-04-06_19h45.55.239,ImplicitInfinitySC-SLOWTASK,2021.2.3,Win32,60.00960154,,,,space,0.2516,,,,,,,,,,j,0,1.6438,,0,3,3,40,1,The number five is finite,f,,,
,,,,,,,,8954,2022-04-06_19h45.55.239,ImplicitInfinitySC-SLOWTASK,2021.2.3,Win32,60.00960154,,,,space,0.3006,,,,,,,,,,j,0,1.2428,,0,4,4,25,1,Space is infinite,f,,,
,,,,,,,,8954,2022-04-06_19h45.55.239,ImplicitInfinitySC-SLOWTASK,2021.2.3,Win32,60.00960154,,,,space,0.2744,,,,,,,,,,j,1,1.1785,,0,5,5,62,1,Helicopters reproduce,j,,,
,,,,,,,,8954,2022-04-06_19h45.55.239,ImplicitInfinitySC-SLOWTASK,2021.2.3,Win32,60.00960154,,,,space,0.2972,,,,,,,,,,j,1,0.9868,,0,6,6,82,1,Stones reproduce,j,,,
,,,,,,,,8954,2022-04-06_19h45.55.239,ImplicitInfinitySC-SLOWTASK,2021.2.3,Win32,60.00960154,,,,space,0.52,,,,,,,,,,j,0,1.0128,,0,7,7,29,1,Space can go on forever,f,,,
,,,,,,,,8954,2022-04-06_19h45.55.239,ImplicitInfinitySC-SLOWTASK,2021.2.3,Win32,60.00960154,,,,space,0.3509,,,,,,,,,,f,1,1.2832,,0,8,8,70,1,Grass needs nutrients,f,,,
,,,,,,,,8954,2022-04-06_19h45.55.239,ImplicitInfinitySC-SLOWTASK,2021.2.3,Win32,60.00960154,,,,space,0.261,,,,,,,,,,j,1,1.1182,,0,9,9,9,1,An inch is infinite,j,,,
,,,,,,,,8954,2022-04-06_19h45.55.239,ImplicitInfinitySC-SLOWTASK,2021.2.3,Win32,60.00960154,,,,space,0.2985,,,,,,,,,,f,1,0.8094,,0,10,10,95,1,Yellow is a color,f,,,
,,,,,,,,8954,2022-04-06_19h45.55.239,ImplicitInfinitySC-SLOWTASK,2021.2.3,Win32,60.00960154,,,,space,0.2562,,,,,,,,,,j,1,0.9748,,0,11,11,34,1,Numbers have an end,j,,,
,,,,,,,,8954,2022-04-06_19h45.55.239,ImplicitInfinitySC-SLOWTASK,2021.2.3,Win32,60.00960154,,,,space,0.2823,,,,,,,,,,f,1,0.766,,0,12,12,93,1,Magenta is a color,f,,,
,,,,,,,,8954,2022-04-06_19h45.55.239,ImplicitInfinitySC-SLOWTASK,2021.2.3,Win32,60.00960154,,,,space,0.2021,,,,,,,,,,f,1,1.7732,,0,13,13,75,1,Frost is composed of matter,f,,,
,,,,,,,,8954,2022-04-06_19h45.55.239,ImplicitInfinitySC-SLOWTASK,2021.2.3,Win32,60.00960154,,,,space,0.3168,,,,,,,,,,j,1,2.1848,,0,14,14,67,1,Gravity has a molecular structure,j,,,
,,,,,,,,8954,2022-04-06_19h45.55.239,ImplicitInfinitySC-SLOWTASK,2021.2.3,Win32,60.00960154,,,,space,1.4376,,,,,,,,,,f,0,1.1749,,0,15,15,121,1,Jupiter is the planet we live on,j,,,
,,,,,,,,8954,2022-04-06_19h45.55.239,ImplicitInfinitySC-SLOWTASK,2021.2.3,Win32,60.00960154,,,,space,0.6068,,,,,,,,,,j,1,1.5776,,0,16,16,26,1,Space has an end,j,,,
,,,,,,,,8954,2022-04-06_19h45.55.239,ImplicitInfinitySC-SLOWTASK,2021.2.3,Win32,60.00960154,,,,space,0.2338,,,,,,,,,,f,1,1.5686,,0,17,17,104,1,The United States has a president,f,,,
,,,,,,,,8954,2022-04-06_19h45.55.239,ImplicitInfinitySC-SLOWTASK,2021.2.3,Win32,60.00960154,,,,space,0.5168,,,,,,,,,,j,0,2.4891,,0,18,18,23,1,Time can always be further divided,f,,,
,,,,,,,,8954,2022-04-06_19h45.55.239,ImplicitInfinitySC-SLOWTASK,2021.2.3,Win32,60.00960154,,,,space,0.2106,,,,,,,,,,j,1,1.117,,0,19,19,60,1,Robots need nutrients,j,,,
,,,,,,,,8954,2022-04-06_19h45.55.239,ImplicitInfinitySC-SLOWTASK,2021.2.3,Win32,60.00960154,,,,space,0.3873,,,,,,,,,,j,0,2.0543,,0,20,20,77,1,Saliva has a molecular structure,f,,,
,,,,,,,,8954,2022-04-06_19h45.55.239,ImplicitInfinitySC-SLOWTASK,2021.2.3,Win32,60.00960154,,,,space,0.2849,,,,,,,,,,j,1,1.702,,0,21,21,59,1,Comets are alive,j,,,
,,,,,,,,8954,2022-04-06_19h45.55.239,ImplicitInfinitySC-SLOWTASK,2021.2.3,Win32,60.00960154,,,,space,0.319,,,,,,,,,,f,1,1.2012,,0,22,22,107,1,A pencil is used to write,f,,,
,,,,,,,,8954,2022-04-06_19h45.55.239,ImplicitInfinitySC-SLOWTASK,2021.2.3,Win32,60.00960154,,,,space,0.3361,,,,,,,,,,j,1,1.0344,,0,23,23,61,1,Sailboats reproduce,j,,,
,,,,,,,,8954,2022-04-06_19h45.55.239,ImplicitInfinitySC-SLOWTASK,2021.2.3,Win32,60.00960154,,,,space,0.335,,,,,,,,,,j,1,2.7872,,0,24,24,64,1,Echoes are composed of matter,j,,,
,,,,,,,,8954,2022-04-06_19h45.55.239,ImplicitInfinitySC-SLOWTASK,2021.2.3,Win32,60.00960154,,,,space,0.3175,,,,,,,,,,j,1,3.4954,,0,25,25,5,1,A minute can go on forever,j,,,
,,,,,,,,8954,2022-04-06_19h45.55.239,ImplicitInfinitySC-SLOWTASK,2021.2.3,Win32,60.00960154,,,,space,0.2638,,,,,,,,,,j,1,9.3144,,0,26,26,3,1,A minute is endless,j,,,
,,,,,,,,8954,2022-04-06_19h45.55.239,ImplicitInfinitySC-SLOWTASK,2021.2.3,Win32,60.00960154,,,,space,0.2554,,,,,,,,,,f,1,0.7842,,0,27,27,92,1,Dinosaurs are extinct,f,,,
,,,,,,,,8954,2022-04-06_19h45.55.239,ImplicitInfinitySC-SLOWTASK,2021.2.3,Win32,60.00960154,,,,space,0.2839,,,,,,,,,,j,0,1.0517,,0,28,28,35,1,Numbers are endless,f,,,
,,,,,,,,8954,2022-04-06_19h45.55.239,ImplicitInfinitySC-SLOWTASK,2021.2.3,Win32,60.00960154,,,,space,0.2232,,,,,,,,,,j,0,2.2865,,0,29,29,47,1,The number five can always be further divided,f,,,
,,,,,,,,8954,2022-04-06_19h45.55.239,ImplicitInfinitySC-SLOWTASK,2021.2.3,Win32,60.00960154,,,,space,1.3693,,,,,,,,,,j,0,1.0025,,0,30,30,51,1,Tigers reproduce,f,,,
,,,,,,,,8954,2022-04-06_19h45.55.239,ImplicitInfinitySC-SLOWTASK,2021.2.3,Win32,60.00960154,,,,space,0.2511,,,,,,,,,,j,0,0.9681,,0,31,31,12,1,An inch cannot go on forever,f,,,
,,,,,,,,8954,2022-04-06_19h45.55.239,ImplicitInfinitySC-SLOWTASK,2021.2.3,Win32,60.00960154,,,,space,0.2326,,,,,,,,,,j,1,0.9812,,0,32,32,79,1,Forks are alive,j,,,
,,,,,,,,8954,2022-04-06_19h45.55.239,ImplicitInfinitySC-SLOWTASK,2021.2.3,Win32,60.00960154,,,,space,0.2512,,,,,,,,,,f,1,1.0371,,0,33,33,100,1,A truck is a vehicle,f,,,
,,,,,,,,8954,2022-04-06_19h45.55.239,ImplicitInfinitySC-SLOWTASK,2021.2.3,Win32,60.00960154,,,,space,0.2548,,,,,,,,,,f,1,1.9448,,0,34,34,74,1,Foam is composed of matter,f,,,
,,,,,,,,8954,2022-04-06_19h45.55.239,ImplicitInfinitySC-SLOWTASK,2021.2.3,Win32,60.00960154,,,,space,0.3932,,,,,,,,,,j,1,1.4537,,0,35,35,63,1,Color can be put in a container,j,,,
,,,,,,,,8954,2022-04-06_19h45.55.239,ImplicitInfinitySC-SLOWTASK,2021.2.3,Win32,60.00960154,,,,space,0.3355,,,,,,,,,,f,0,1.5373,,0,36,36,14,1,An inch cannot always be further divided,j,,,
,,,,,,,,8954,2022-04-06_19h45.55.239,ImplicitInfinitySC-SLOWTASK,2021.2.3,Win32,60.00960154,,,,space,0.2701,,,,,,,,,,f,1,1.1233,,0,37,37,98,1,A clock is used to tell time,f,,,
,,,,,,,,8954,2022-04-06_19h45.55.239,ImplicitInfinitySC-SLOWTASK,2021.2.3,Win32,60.00960154,,,,space,0.6612,,,,,,,,,,j,0,1.518,,0,38,38,19,1,Time is endless,f,,,
,,,,,,,,8954,2022-04-06_19h45.55.239,ImplicitInfinitySC-SLOWTASK,2021.2.3,Win32,60.00960154,,,,space,0.3004,,,,,,,,,,j,1,1.0964,,0,39,39,119,1,A motorcycle is a person,j,,,
,,,,,,,,8954,2022-04-06_19h45.55.239,ImplicitInfinitySC-SLOWTASK,2021.2.3,Win32,60.00960154,,,,space,0.2395,,,,,,,,,,j,1,1.1977,space,0,40,40,114,1,Lightbulbs are made of clay,j,1.3643,,
,,,,,,,,8954,2022-04-06_19h45.55.239,ImplicitInfinitySC-SLOWTASK,2021.2.3,Win32,60.00960154,,,,space,0.2679,,,,,,,,,,j,1,0.9176,,0,41,41,111,1,A circle is a flavor,j,,,
,,,,,,,,8954,2022-04-06_19h45.55.239,ImplicitInfinitySC-SLOWTASK,2021.2.3,Win32,60.00960154,,,,space,0.2838,,,,,,,,,,f,1,1.852,,0,42,42,105,1,There are fifty states in the United States,f,,,
,,,,,,,,8954,2022-04-06_19h45.55.239,ImplicitInfinitySC-SLOWTASK,2021.2.3,Win32,60.00960154,,,,space,0.2226,,,,,,,,,,j,0,0.9682,,0,43,43,0,1,A minute is finite,f,,,
,,,,,,,,8954,2022-04-06_19h45.55.239,ImplicitInfinitySC-SLOWTASK,2021.2.3,Win32,60.00960154,,,,space,0.2506,,,,,,,,,,j,1,1.3687,,0,44,44,84,1,Silence is composed of matter,j,,,
,,,,,,,,8954,2022-04-06_19h45.55.239,ImplicitInfinitySC-SLOWTASK,2021.2.3,Win32,60.00960154,,,,space,0.3591,,,,,,,,,,f,1,1.518,,0,45,45,89,1,A square is a shape,f,,,
,,,,,,,,8954,2022-04-06_19h45.55.239,ImplicitInfinitySC-SLOWTASK,2021.2.3,Win32,60.00960154,,,,space,0.2934,,,,,,,,,,j,1,1.5361,,0,46,46,80,1,Mittens need nutrients,j,,,
,,,,,,,,8954,2022-04-06_19h45.55.239,ImplicitInfinitySC-SLOWTASK,2021.2.3,Win32,60.00960154,,,,space,0.2234,,,,,,,,,,f,1,2.3244,,0,47,47,106,1,Humans cannot breathe water,f,,,
,,,,,,,,8954,2022-04-06_19h45.55.239,ImplicitInfinitySC-SLOWTASK,2021.2.3,Win32,60.00960154,,,,space,0.2498,,,,,,,,,,j,1,1.0846,,0,48,48,1,1,A minute is infinite,j,,,
,,,,,,,,8954,2022-04-06_19h45.55.239,ImplicitInfinitySC-SLOWTASK,2021.2.3,Win32,60.00960154,,,,space,0.2682,,,,,,,,,,f,1,1.1188,,0,49,49,69,1,Bacteria are alive,f,,,
,,,,,,,,8954,2022-04-06_19h45.55.239,ImplicitInfinitySC-SLOWTASK,2021.2.3,Win32,60.00960154,,,,space,0.25,,,,,,,,,,j,1,3.0013,,0,50,50,22,1,Time cannot always be further divided,j,,,
,,,,,,,,8954,2022-04-06_19h45.55.239,ImplicitInfinitySC-SLOWTASK,2021.2.3,Win32,60.00960154,,,,space,0.225,,,,,,,,,,f,1,2.1017,,0,51,51,76,1,Pollen has a molecular structure,f,,,
,,,,,,,,8954,2022-04-06_19h45.55.239,ImplicitInfinitySC-SLOWTASK,2021.2.3,Win32,60.00960154,,,,space,0.184,,,,,,,,,,f,1,1.0379,,0,52,52,48,1,Crocodiles are alive,f,,,
,,,,,,,,8954,2022-04-06_19h45.55.239,ImplicitInfinitySC-SLOWTASK,2021.2.3,Win32,60.00960154,,,,space,0.2004,,,,,,,,,,f,1,1.7591,,0,53,53,33,1,Numbers are infinite,f,,,
,,,,,,,,8954,2022-04-06_19h45.55.239,ImplicitInfinitySC-SLOWTASK,2021.2.3,Win32,60.00960154,,,,space,0.235,,,,,,,,,,j,1,1.9538,,0,54,54,43,1,The number five is endless,j,,,
,,,,,,,,8954,2022-04-06_19h45.55.239,ImplicitInfinitySC-SLOWTASK,2021.2.3,Win32,60.00960154,,,,space,0.785,,,,,,,,,,j,0,0.9172,,0,55,55,8,1,An inch is finite,f,,,
,,,,,,,,8954,2022-04-06_19h45.55.239,ImplicitInfinitySC-SLOWTASK,2021.2.3,Win32,60.00960154,,,,space,0.2179,,,,,,,,,,f,1,0.9024,,0,56,56,91,1,A circle is a shape,f,,,
,,,,,,,,8954,2022-04-06_19h45.55.239,ImplicitInfinitySC-SLOWTASK,2021.2.3,Win32,60.00960154,,,,space,0.2513,,,,,,,,,,j,1,1.052,,0,57,57,115,1,Yellow is an animal,j,,,
,,,,,,,,8954,2022-04-06_19h45.55.239,ImplicitInfinitySC-SLOWTASK,2021.2.3,Win32,60.00960154,,,,space,0.2345,,,,,,,,,,j,0,3.4248,,0,58,58,56,1,Diamonds have a molecular structure,f,,,
,,,,,,,,8954,2022-04-06_19h45.55.239,ImplicitInfinitySC-SLOWTASK,2021.2.3,Win32,60.00960154,,,,space,0.2342,,,,,,,,,,j,0,1.2385,,0,59,59,44,1,The number five cannot go on forever,f,,,
,,,,,,,,8954,2022-04-06_19h45.55.239,ImplicitInfinitySC-SLOWTASK,2021.2.3,Win32,60.00960154,,,,space,0.2513,,,,,,,,,,f,1,1.0343,,0,60,60,97,1,Dolphins can swim in the ocean,f,,,
,,,,,,,,8954,2022-04-06_19h45.55.239,ImplicitInfinitySC-SLOWTASK,2021.2.3,Win32,60.00960154,,,,space,0.2867,,,,,,,,,,j,1,0.9675,,0,61,61,41,1,The number five is infinite,j,,,
,,,,,,,,8954,2022-04-06_19h45.55.239,ImplicitInfinitySC-SLOWTASK,2021.2.3,Win32,60.00960154,,,,space,0.301,,,,,,,,,,j,1,2.0534,,0,62,62,20,1,Time cannot go on forever,j,,,
,,,,,,,,8954,2022-04-06_19h45.55.239,ImplicitInfinitySC-SLOWTASK,2021.2.3,Win32,60.00960154,,,,space,0.2681,,,,,,,,,,f,1,0.9703,,0,63,63,99,1,A motorcycle is a vehicle,f,,,
,,,,,,,,8954,2022-04-06_19h45.55.239,ImplicitInfinitySC-SLOWTASK,2021.2.3,Win32,60.00960154,,,,space,0.2683,,,,,,,,,,j,1,1.5935,,0,64,64,65,1,Shadows are composed of matter,j,,,
,,,,,,,,8954,2022-04-06_19h45.55.239,ImplicitInfinitySC-SLOWTASK,2021.2.3,Win32,60.00960154,,,,space,0.2266,,,,,,,,,,f,1,1.0403,,0,65,65,72,1,Mushrooms reproduce,f,,,
,,,,,,,,8954,2022-04-06_19h45.55.239,ImplicitInfinitySC-SLOWTASK,2021.2.3,Win32,60.00960154,,,,space,0.2177,,,,,,,,,,f,1,1.5178,,0,66,66,39,1,Numbers can always be further divided,f,,,
,,,,,,,,8954,2022-04-06_19h45.55.239,ImplicitInfinitySC-SLOWTASK,2021.2.3,Win32,60.00960154,,,,space,0.2442,,,,,,,,,,f,1,1.2092,,0,67,67,50,1,Turtles need nutrients,f,,,
,,,,,,,,8954,2022-04-06_19h45.55.239,ImplicitInfinitySC-SLOWTASK,2021.2.3,Win32,60.00960154,,,,space,0.2181,,,,,,,,,,f,1,1.8264,,0,68,68,10,1,An inch has an end,f,,,
,,,,,,,,8954,2022-04-06_19h45.55.239,ImplicitInfinitySC-SLOWTASK,2021.2.3,Win32,60.00960154,,,,space,0.2675,,,,,,,,,,j,1,1.1289,,0,69,69,113,1,Magenta is a shape,j,,,
,,,,,,,,8954,2022-04-06_19h45.55.239,ImplicitInfinitySC-SLOWTASK,2021.2.3,Win32,60.00960154,,,,space,0.1931,,,,,,,,,,f,1,0.851,,0,70,70,52,1,Frogs reproduce,f,,,
,,,,,,,,8954,2022-04-06_19h45.55.239,ImplicitInfinitySC-SLOWTASK,2021.2.3,Win32,60.00960154,,,,space,0.3177,,,,,,,,,,j,1,1.356,,0,71,71,36,1,Numbers cannot go on forever,j,,,
,,,,,,,,8954,2022-04-06_19h45.55.239,ImplicitInfinitySC-SLOWTASK,2021.2.3,Win32,60.00960154,,,,space,0.2032,,,,,,,,,,f,0,0.8854,,0,72,72,122,1,The Earth is a star,j,,,
,,,,,,,,8954,2022-04-06_19h45.55.239,ImplicitInfinitySC-SLOWTASK,2021.2.3,Win32,60.00960154,,,,space,0.3012,,,,,,,,,,j,1,1.3178,,0,73,73,117,1,Dolphins cannot swim in the ocean,j,,,
,,,,,,,,8954,2022-04-06_19h45.55.239,ImplicitInfinitySC-SLOWTASK,2021.2.3,Win32,60.00960154,,,,space,0.3016,,,,,,,,,,j,1,1.1548,,0,74,74,127,1,A zebra is used to write,j,,,
,,,,,,,,8954,2022-04-06_19h45.55.239,ImplicitInfinitySC-SLOWTASK,2021.2.3,Win32,60.00960154,,,,space,0.285,,,,,,,,,,j,0,1.4973,,0,75,75,31,1,Space can always be further divided,f,,,
,,,,,,,,8954,2022-04-06_19h45.55.239,ImplicitInfinitySC-SLOWTASK,2021.2.3,Win32,60.00960154,,,,space,0.2464,,,,,,,,,,j,1,1.4679,,0,76,76,24,1,Space is finite,j,,,
,,,,,,,,8954,2022-04-06_19h45.55.239,ImplicitInfinitySC-SLOWTASK,2021.2.3,Win32,60.00960154,,,,space,0.3213,,,,,,,,,,j,0,0.9178,,0,77,77,27,1,Space is endless,f,,,
,,,,,,,,8954,2022-04-06_19h45.55.239,ImplicitInfinitySC-SLOWTASK,2021.2.3,Win32,60.00960154,,,,space,0.4513,,,,,,,,,,j,0,1.023,,0,78,78,42,1,The number five has an end,f,,,
,,,,,,,,8954,2022-04-06_19h45.55.239,ImplicitInfinitySC-SLOWTASK,2021.2.3,Win32,60.00960154,,,,space,0.4684,,,,,,,,,,j,1,1.0753,,0,79,79,16,1,Time is finite,j,,,
,,,,,,,,8954,2022-04-06_19h45.55.239,ImplicitInfinitySC-SLOWTASK,2021.2.3,Win32,60.00960154,,,,space,0.4501,,,,,,,,,,f,1,2.2647,,0,80,80,73,1,Bubbles can be put in a container,f,,,
,,,,,,,,8954,2022-04-06_19h45.55.239,ImplicitInfinitySC-SLOWTASK,2021.2.3,Win32,60.00960154,,,,,,,,,,,,,,,,,,,,,,,,,,,space,13.9843
