SlowInstrKey.keys,SlowInstrKey.rt,SlowInstrLoop.thisRepN,SlowInstrLoop.thisTrialN,SlowInstrLoop.thisN,SlowInstrLoop.thisIndex,SlowInstrLoop.ran,SlowInstructions,participant,date,expName,psychopyVersion,OS,frameRate,key_resp_5.keys,key_resp_5.corr,key_resp_5.rt,key_resp_4.keys,key_resp_4.rt,slowpracticeloop.thisRepN,slowpracticeloop.thisTrialN,slowpracticeloop.thisN,slowpracticeloop.thisIndex,slowpracticeloop.ran,practicetext,practicecorrect,key_resp_3.keys,key_resp_3.rt,SlowKey.keys,SlowKey.corr,SlowKey.rt,encouragekey.keys,SlowLoop.thisRepN,SlowLoop.thisTrialN,SlowLoop.thisN,SlowLoop.thisIndex,SlowLoop.ran,Statement,Correct,encouragekey.rt,endstudykey.keys
space,3.1175,0,0,0,0,1,"You will be shown a total of 80 statements pertaining to mathematics, science, and social concepts. Your task is to determine whether each statement is true or false. Some statements will be difficult and some will be easier.  We do not expect you to know the correct answer for all 80 statements.  Press SPACE to Continue",9245,2022-04-06_18h11.57.677,ImplicitInfinitySC-SLOWTASK,2021.2.3,Win32,60.0276127,,,,,,,,,,,,,,,,,,,,,,,,,,,
space,3.5341,0,1,1,1,1,"We urge you to try your best and take your time. Each statement will appear on your screen and you will have 10 seconds to decide if it is true or false. You will hear a beep at 6 seconds that will prompt you to respond within the next 4 seconds. If you fail to respond within this time, the trial will be counted as incorrect and the next statement will appear. Press SPACE to continue",9245,2022-04-06_18h11.57.677,ImplicitInfinitySC-SLOWTASK,2021.2.3,Win32,60.0276127,,,,,,,,,,,,,,,,,,,,,,,,,,,
space,0.1357,0,2,2,2,1,"If the statement is true, you will press the “F” key on your keyboard with your left pointer finger; if the statement is false, you will press the “J” key on your keyboard with your right pointer finger. Press SPACE to continue",9245,2022-04-06_18h11.57.677,ImplicitInfinitySC-SLOWTASK,2021.2.3,Win32,60.0276127,,,,,,,,,,,,,,,,,,,,,,,,,,,
space,0.8881,0,3,3,3,1,Take your time and go slowly! You have 10 seconds to answer! Press SPACE to continue. ,9245,2022-04-06_18h11.57.677,ImplicitInfinitySC-SLOWTASK,2021.2.3,Win32,60.0276127,,,,,,,,,,,,,,,,,,,,,,,,,,,
,,,,,,,,9245,2022-04-06_18h11.57.677,ImplicitInfinitySC-SLOWTASK,2021.2.3,Win32,60.0276127,f,1,8.9203,space,0.803,0,0,0,0,1,A circle is a shape,f,,,,,,,,,,,,,,,
,,,,,,,,9245,2022-04-06_18h11.57.677,ImplicitInfinitySC-SLOWTASK,2021.2.3,Win32,60.0276127,j,1,2.4512,space,5.671,0,1,1,7,1,The Earth is a star,j,,,,,,,,,,,,,,,
,,,,,,,,9245,2022-04-06_18h11.57.677,ImplicitInfinitySC-SLOWTASK,2021.2.3,Win32,60.0276127,j,0,9.3513,space,0.7718,0,2,2,2,1,Magenta is a color,f,,,,,,,,,,,,,,,
,,,,,,,,9245,2022-04-06_18h11.57.677,ImplicitInfinitySC-SLOWTASK,2021.2.3,Win32,60.0276127,j,0,3.0333,space,1.1701,0,3,3,3,1,A clock is used to tell time,f,,,,,,,,,,,,,,,
,,,,,,,,9245,2022-04-06_18h11.57.677,ImplicitInfinitySC-SLOWTASK,2021.2.3,Win32,60.0276127,f,1,1.3242,space,0.7061,0,4,4,4,1,Humans cannot breathe water,f,,,,,,,,,,,,,,,
,,,,,,,,9245,2022-04-06_18h11.57.677,ImplicitInfinitySC-SLOWTASK,2021.2.3,Win32,60.0276127,j,1,1.2345,,,0,5,5,8,1,Mississippi is a country,j,,,,,,,,,,,,,,,
,,,,,,,,9245,2022-04-06_18h11.57.677,ImplicitInfinitySC-SLOWTASK,2021.2.3,Win32,60.0276127,f,0,1.1246,space,7.207,0,6,6,9,1,Humans cannot eat food,j,,,,,,,,,,,,,,,
,,,,,,,,9245,2022-04-06_18h11.57.677,ImplicitInfinitySC-SLOWTASK,2021.2.3,Win32,60.0276127,j,0,0.2427,space,1.1701,0,7,7,1,1,Dinosaurs are extinct,f,,,,,,,,,,,,,,,
,,,,,,,,9245,2022-04-06_18h11.57.677,ImplicitInfinitySC-SLOWTASK,2021.2.3,Win32,60.0276127,f,0,1.3236,space,0.7051,0,8,8,5,1,A truck is an animal,j,,,,,,,,,,,,,,,
,,,,,,,,9245,2022-04-06_18h11.57.677,ImplicitInfinitySC-SLOWTASK,2021.2.3,Win32,60.0276127,j,1,1.2572,space,4.3522,0,9,9,6,1,Jupiter is the planet we live on,j,,,,,,,,,,,,,,,
,,,,,,,,9245,2022-04-06_18h11.57.677,ImplicitInfinitySC-SLOWTASK,2021.2.3,Win32,60.0276127,,,,space,4.3578,,,,,,,,space,2.56,j,0,1.2196,,0,0,0,101,1,Jupiter is in our solar system,f,,
,,,,,,,,9245,2022-04-06_18h11.57.677,ImplicitInfinitySC-SLOWTASK,2021.2.3,Win32,60.0276127,,,,space,0.7017,,,,,,,,,,f,1,1.352,,0,1,1,70,1,Grass needs nutrients,f,,
,,,,,,,,9245,2022-04-06_18h11.57.677,ImplicitInfinitySC-SLOWTASK,2021.2.3,Win32,60.0276127,,,,space,4.3658,,,,,,,,,,j,1,1.2424,,0,2,2,127,1,A zebra is used to write,j,,
,,,,,,,,9245,2022-04-06_18h11.57.677,ImplicitInfinitySC-SLOWTASK,2021.2.3,Win32,60.0276127,,,,space,0.7048,,,,,,,,,,f,0,1.3319,,0,3,3,36,1,Numbers cannot go on forever,j,,
,,,,,,,,9245,2022-04-06_18h11.57.677,ImplicitInfinitySC-SLOWTASK,2021.2.3,Win32,60.0276127,,,,space,4.3554,,,,,,,,,,j,1,1.2503,,0,4,4,61,1,Sailboats reproduce,j,,
,,,,,,,,9245,2022-04-06_18h11.57.677,ImplicitInfinitySC-SLOWTASK,2021.2.3,Win32,60.0276127,,,,space,0.6901,,,,,,,,,,f,1,1.325,,0,5,5,37,1,Numbers can go on forever,f,,
,,,,,,,,9245,2022-04-06_18h11.57.677,ImplicitInfinitySC-SLOWTASK,2021.2.3,Win32,60.0276127,,,,space,4.3415,,,,,,,,,,j,0,1.2361,,0,6,6,52,1,Frogs reproduce,f,,
,,,,,,,,9245,2022-04-06_18h11.57.677,ImplicitInfinitySC-SLOWTASK,2021.2.3,Win32,60.0276127,,,,space,0.6958,,,,,,,,,,f,1,1.3456,,0,7,7,27,1,Space is endless,f,,
,,,,,,,,9245,2022-04-06_18h11.57.677,ImplicitInfinitySC-SLOWTASK,2021.2.3,Win32,60.0276127,,,,space,4.366,,,,,,,,,,j,1,1.2587,,0,8,8,108,1,This sentence is written in Spanish,j,,
,,,,,,,,9245,2022-04-06_18h11.57.677,ImplicitInfinitySC-SLOWTASK,2021.2.3,Win32,60.0276127,,,,space,0.7035,,,,,,,,,,f,1,1.3353,,0,9,9,90,1,A triangle is not an animal,f,,
,,,,,,,,9245,2022-04-06_18h11.57.677,ImplicitInfinitySC-SLOWTASK,2021.2.3,Win32,60.0276127,,,,space,4.3549,,,,,,,,,,j,0,1.2495,,0,10,10,21,1,Time can go on forever,f,,
,,,,,,,,9245,2022-04-06_18h11.57.677,ImplicitInfinitySC-SLOWTASK,2021.2.3,Win32,60.0276127,,,,space,0.7058,,,,,,,,,,f,1,1.3371,,0,11,11,15,1,An inch can be always further divided,f,,
,,,,,,,,9245,2022-04-06_18h11.57.677,ImplicitInfinitySC-SLOWTASK,2021.2.3,Win32,60.0276127,,,,space,4.3565,,,,,,,,,,j,1,1.249,,0,12,12,115,1,Yellow is an animal,j,,
,,,,,,,,9245,2022-04-06_18h11.57.677,ImplicitInfinitySC-SLOWTASK,2021.2.3,Win32,60.0276127,,,,space,0.7099,,,,,,,,,,f,0,1.3408,,0,13,13,116,1,Fish cannot swim in the ocean,j,,
,,,,,,,,9245,2022-04-06_18h11.57.677,ImplicitInfinitySC-SLOWTASK,2021.2.3,Win32,60.0276127,,,,space,4.3624,,,,,,,,,,j,1,1.2513,,0,14,14,45,1,The number five can go on forever,j,,
,,,,,,,,9245,2022-04-06_18h11.57.677,ImplicitInfinitySC-SLOWTASK,2021.2.3,Win32,60.0276127,,,,space,0.7004,,,,,,,,,,f,0,1.3485,,0,15,15,109,1,A square is a color,j,,
,,,,,,,,9245,2022-04-06_18h11.57.677,ImplicitInfinitySC-SLOWTASK,2021.2.3,Win32,60.0276127,,,,space,4.3682,,,,,,,,,,j,0,1.2456,,0,16,16,99,1,A motorcycle is a vehicle,f,,
,,,,,,,,9245,2022-04-06_18h11.57.677,ImplicitInfinitySC-SLOWTASK,2021.2.3,Win32,60.0276127,,,,space,0.7036,,,,,,,,,,f,1,1.3349,,0,17,17,48,1,Crocodiles are alive,f,,
,,,,,,,,9245,2022-04-06_18h11.57.677,ImplicitInfinitySC-SLOWTASK,2021.2.3,Win32,60.0276127,,,,space,4.3572,,,,,,,,,,j,1,1.2497,,0,18,18,24,1,Space is finite,j,,
,,,,,,,,9245,2022-04-06_18h11.57.677,ImplicitInfinitySC-SLOWTASK,2021.2.3,Win32,60.0276127,,,,space,0.6831,,,,,,,,,,f,0,1.357,,0,19,19,58,1,Clocks are alive,j,,
,,,,,,,,9245,2022-04-06_18h11.57.677,ImplicitInfinitySC-SLOWTASK,2021.2.3,Win32,60.0276127,,,,space,4.3487,,,,,,,,,,j,0,1.2401,,0,20,20,98,1,A clock is used to tell time,f,,
,,,,,,,,9245,2022-04-06_18h11.57.677,ImplicitInfinitySC-SLOWTASK,2021.2.3,Win32,60.0276127,,,,space,0.7007,,,,,,,,,,f,1,1.3329,,0,21,21,94,1,Orange is a color,f,,
,,,,,,,,9245,2022-04-06_18h11.57.677,ImplicitInfinitySC-SLOWTASK,2021.2.3,Win32,60.0276127,,,,space,4.3674,,,,,,,,,,j,1,1.2391,,0,22,22,84,1,Silence is composed of matter,j,,
,,,,,,,,9245,2022-04-06_18h11.57.677,ImplicitInfinitySC-SLOWTASK,2021.2.3,Win32,60.0276127,,,,space,0.7039,,,,,,,,,,f,0,1.3228,,0,23,23,11,1,An inch is endless,j,,
,,,,,,,,9245,2022-04-06_18h11.57.677,ImplicitInfinitySC-SLOWTASK,2021.2.3,Win32,60.0276127,,,,space,4.3558,,,,,,,,,,j,1,1.2327,,0,24,24,6,1,A minute cannot always be further divided,j,,
,,,,,,,,9245,2022-04-06_18h11.57.677,ImplicitInfinitySC-SLOWTASK,2021.2.3,Win32,60.0276127,,,,space,0.7077,,,,,,,,,,f,1,1.3226,,0,25,25,51,1,Tigers reproduce,f,,
,,,,,,,,9245,2022-04-06_18h11.57.677,ImplicitInfinitySC-SLOWTASK,2021.2.3,Win32,60.0276127,,,,space,4.3417,,,,,,,,,,j,0,1.2491,,0,26,26,42,1,The number five has an end,f,,
,,,,,,,,9245,2022-04-06_18h11.57.677,ImplicitInfinitySC-SLOWTASK,2021.2.3,Win32,60.0276127,,,,space,0.6936,,,,,,,,,,f,0,1.3115,,0,27,27,66,1,Music has a molecular structure,j,,
,,,,,,,,9245,2022-04-06_18h11.57.677,ImplicitInfinitySC-SLOWTASK,2021.2.3,Win32,60.0276127,,,,space,4.3497,,,,,,,,,,j,1,1.2433,,0,28,28,121,1,Jupiter is the planet we live on,j,,
,,,,,,,,9245,2022-04-06_18h11.57.677,ImplicitInfinitySC-SLOWTASK,2021.2.3,Win32,60.0276127,,,,space,0.7015,,,,,,,,,,f,1,1.3182,,0,29,29,74,1,Foam is composed of matter,f,,
,,,,,,,,9245,2022-04-06_18h11.57.677,ImplicitInfinitySC-SLOWTASK,2021.2.3,Win32,60.0276127,,,,space,4.3537,,,,,,,,,,j,1,1.2296,,0,30,30,60,1,Robots need nutrients,j,,
,,,,,,,,9245,2022-04-06_18h11.57.677,ImplicitInfinitySC-SLOWTASK,2021.2.3,Win32,60.0276127,,,,space,0.6891,,,,,,,,,,f,0,1.3226,,0,31,31,13,1,An inch can go on forever,j,,
,,,,,,,,9245,2022-04-06_18h11.57.677,ImplicitInfinitySC-SLOWTASK,2021.2.3,Win32,60.0276127,,,,space,4.3438,,,,,,,,,,j,1,1.2335,,0,32,32,78,1,Hammers are alive,j,,
,,,,,,,,9245,2022-04-06_18h11.57.677,ImplicitInfinitySC-SLOWTASK,2021.2.3,Win32,60.0276127,,,,space,0.6908,,,,,,,,,,f,1,1.3243,,0,33,33,104,1,The United States has a president,f,,
,,,,,,,,9245,2022-04-06_18h11.57.677,ImplicitInfinitySC-SLOWTASK,2021.2.3,Win32,60.0276127,,,,space,4.342,,,,,,,,,,j,0,1.2183,,0,34,34,17,1,Time is infinite,f,,
,,,,,,,,9245,2022-04-06_18h11.57.677,ImplicitInfinitySC-SLOWTASK,2021.2.3,Win32,60.0276127,,,,space,0.7003,,,,,,,,,,f,1,1.3328,,0,35,35,69,1,Bacteria are alive,f,,
,,,,,,,,9245,2022-04-06_18h11.57.677,ImplicitInfinitySC-SLOWTASK,2021.2.3,Win32,60.0276127,,,,space,4.3674,,,,,,,,,,j,1,1.2432,,0,36,36,34,1,Numbers have an end,j,,
,,,,,,,,9245,2022-04-06_18h11.57.677,ImplicitInfinitySC-SLOWTASK,2021.2.3,Win32,60.0276127,,,,space,0.7038,,,,,,,,,,f,0,1.3333,,0,37,37,118,1,A horse is used to tell time,j,,
,,,,,,,,9245,2022-04-06_18h11.57.677,ImplicitInfinitySC-SLOWTASK,2021.2.3,Win32,60.0276127,,,,space,4.3507,,,,,,,,,,j,0,1.2432,,0,38,38,68,1,Algae is alive,f,,
,,,,,,,,9245,2022-04-06_18h11.57.677,ImplicitInfinitySC-SLOWTASK,2021.2.3,Win32,60.0276127,,,,space,0.703,,,,,,,,,,f,1,1.3347,,0,39,39,57,1,Rocks have a molecular structure,f,,
,,,,,,,,9245,2022-04-06_18h11.57.677,ImplicitInfinitySC-SLOWTASK,2021.2.3,Win32,60.0276127,,,,space,3.073,,,,,,,,,,j,1,1.2496,space,0,40,40,79,1,Forks are alive,j,1.3379,
,,,,,,,,9245,2022-04-06_18h11.57.677,ImplicitInfinitySC-SLOWTASK,2021.2.3,Win32,60.0276127,,,,space,4.3564,,,,,,,,,,j,1,1.233,,0,41,41,114,1,Lightbulbs are made of clay,j,,
,,,,,,,,9245,2022-04-06_18h11.57.677,ImplicitInfinitySC-SLOWTASK,2021.2.3,Win32,60.0276127,,,,space,0.7191,,,,,,,,,,f,1,1.3252,,0,42,42,7,1,A minute can always be further divided,f,,
,,,,,,,,9245,2022-04-06_18h11.57.677,ImplicitInfinitySC-SLOWTASK,2021.2.3,Win32,60.0276127,,,,space,4.3624,,,,,,,,,,j,1,1.2374,,0,43,43,83,1,Songs can be put in a container,j,,
,,,,,,,,9245,2022-04-06_18h11.57.677,ImplicitInfinitySC-SLOWTASK,2021.2.3,Win32,60.0276127,,,,space,0.6836,,,,,,,,,,f,1,1.3339,,0,44,44,49,1,Pelicans are alive,f,,
,,,,,,,,9245,2022-04-06_18h11.57.677,ImplicitInfinitySC-SLOWTASK,2021.2.3,Win32,60.0276127,,,,space,4.3499,,,,,,,,,,j,0,1.2256,,0,45,45,96,1,Fish can swim in the ocean,f,,
,,,,,,,,9245,2022-04-06_18h11.57.677,ImplicitInfinitySC-SLOWTASK,2021.2.3,Win32,60.0276127,,,,space,0.7002,,,,,,,,,,f,1,1.317,,0,46,46,97,1,Dolphins can swim in the ocean,f,,
,,,,,,,,9245,2022-04-06_18h11.57.677,ImplicitInfinitySC-SLOWTASK,2021.2.3,Win32,60.0276127,,,,space,4.3702,,,,,,,,,,j,1,1.2382,,0,47,47,67,1,Gravity has a molecular structure,j,,
,,,,,,,,9245,2022-04-06_18h11.57.677,ImplicitInfinitySC-SLOWTASK,2021.2.3,Win32,60.0276127,,,,space,0.6874,,,,,,,,,,f,0,1.314,,0,48,48,119,1,A motorcycle is a person,j,,
,,,,,,,,9245,2022-04-06_18h11.57.677,ImplicitInfinitySC-SLOWTASK,2021.2.3,Win32,60.0276127,,,,space,4.3535,,,,,,,,,,j,1,1.2501,,0,49,49,80,1,Mittens need nutrients,j,,
,,,,,,,,9245,2022-04-06_18h11.57.677,ImplicitInfinitySC-SLOWTASK,2021.2.3,Win32,60.0276127,,,,space,0.6908,,,,,,,,,,f,1,1.3225,,0,50,50,40,1,The number five is finite,f,,
,,,,,,,,9245,2022-04-06_18h11.57.677,ImplicitInfinitySC-SLOWTASK,2021.2.3,Win32,60.0276127,,,,space,4.3407,,,,,,,,,,j,1,1.2396,,0,51,51,111,1,A circle is a flavor,j,,
,,,,,,,,9245,2022-04-06_18h11.57.677,ImplicitInfinitySC-SLOWTASK,2021.2.3,Win32,60.0276127,,,,space,0.7187,,,,,,,,,,f,1,1.3425,,0,52,52,100,1,A truck is a vehicle,f,,
,,,,,,,,9245,2022-04-06_18h11.57.677,ImplicitInfinitySC-SLOWTASK,2021.2.3,Win32,60.0276127,,,,space,4.3615,,,,,,,,,,j,1,1.2391,,0,53,53,86,1,Words have a molecular structure,j,,
,,,,,,,,9245,2022-04-06_18h11.57.677,ImplicitInfinitySC-SLOWTASK,2021.2.3,Win32,60.0276127,,,,space,0.6836,,,,,,,,,,f,0,1.333,,0,54,54,26,1,Space has an end,j,,
,,,,,,,,9245,2022-04-06_18h11.57.677,ImplicitInfinitySC-SLOWTASK,2021.2.3,Win32,60.0276127,,,,space,4.3689,,,,,,,,,,j,0,1.2241,,0,55,55,12,1,An inch cannot go on forever,f,,
,,,,,,,,9245,2022-04-06_18h11.57.677,ImplicitInfinitySC-SLOWTASK,2021.2.3,Win32,60.0276127,,,,space,0.705,,,,,,,,,,f,1,1.3175,,0,56,56,53,1,Bricks can be put in a container,f,,
,,,,,,,,9245,2022-04-06_18h11.57.677,ImplicitInfinitySC-SLOWTASK,2021.2.3,Win32,60.0276127,,,,space,4.3365,,,,,,,,,,j,0,1.2173,,0,57,57,2,1,A minute has an end,f,,
,,,,,,,,9245,2022-04-06_18h11.57.677,ImplicitInfinitySC-SLOWTASK,2021.2.3,Win32,60.0276127,,,,space,0.7038,,,,,,,,,,f,1,1.3231,,0,58,58,31,1,Space can always be further divided,f,,
,,,,,,,,9245,2022-04-06_18h11.57.677,ImplicitInfinitySC-SLOWTASK,2021.2.3,Win32,60.0276127,,,,space,4.353,,,,,,,,,,j,0,1.2329,,0,59,59,95,1,Yellow is a color,f,,
,,,,,,,,9245,2022-04-06_18h11.57.677,ImplicitInfinitySC-SLOWTASK,2021.2.3,Win32,60.0276127,,,,space,0.7049,,,,,,,,,,f,1,1.3211,,0,60,60,91,1,A circle is a shape,f,,
,,,,,,,,9245,2022-04-06_18h11.57.677,ImplicitInfinitySC-SLOWTASK,2021.2.3,Win32,60.0276127,,,,space,4.3544,,,,,,,,,,j,0,1.2332,,0,61,61,93,1,Magenta is a color,f,,
,,,,,,,,9245,2022-04-06_18h11.57.677,ImplicitInfinitySC-SLOWTASK,2021.2.3,Win32,60.0276127,,,,space,0.7064,,,,,,,,,,f,0,1.3238,,0,62,62,123,1,Mississippi is a country,j,,
,,,,,,,,9245,2022-04-06_18h11.57.677,ImplicitInfinitySC-SLOWTASK,2021.2.3,Win32,60.0276127,,,,space,4.341,,,,,,,,,,j,1,1.2206,,0,63,63,64,1,Echoes are composed of matter,j,,
,,,,,,,,9245,2022-04-06_18h11.57.677,ImplicitInfinitySC-SLOWTASK,2021.2.3,Win32,60.0276127,,,,space,0.7104,,,,,,,,,,f,1,1.3272,,0,64,64,106,1,Humans cannot breathe water,f,,
,,,,,,,,9245,2022-04-06_18h11.57.677,ImplicitInfinitySC-SLOWTASK,2021.2.3,Win32,60.0276127,,,,space,4.3627,,,,,,,,,,j,0,1.2538,,0,65,65,75,1,Frost is composed of matter,f,,
,,,,,,,,9245,2022-04-06_18h11.57.677,ImplicitInfinitySC-SLOWTASK,2021.2.3,Win32,60.0276127,,,,space,0.7017,,,,,,,,,,f,0,1.3486,,0,66,66,5,1,A minute can go on forever,j,,
,,,,,,,,9245,2022-04-06_18h11.57.677,ImplicitInfinitySC-SLOWTASK,2021.2.3,Win32,60.0276127,,,,space,4.3522,,,,,,,,,,j,0,1.2262,,0,67,67,47,1,The number five can always be further divided,f,,
,,,,,,,,9245,2022-04-06_18h11.57.677,ImplicitInfinitySC-SLOWTASK,2021.2.3,Win32,60.0276127,,,,space,0.7037,,,,,,,,,,f,1,1.3224,,0,68,68,103,1,The United States is a country,f,,
,,,,,,,,9245,2022-04-06_18h11.57.677,ImplicitInfinitySC-SLOWTASK,2021.2.3,Win32,60.0276127,,,,space,4.3519,,,,,,,,,,j,0,1.244,,0,69,69,19,1,Time is endless,f,,
,,,,,,,,9245,2022-04-06_18h11.57.677,ImplicitInfinitySC-SLOWTASK,2021.2.3,Win32,60.0276127,,,,space,0.7063,,,,,,,,,,f,0,1.3402,,0,70,70,3,1,A minute is endless,j,,
,,,,,,,,9245,2022-04-06_18h11.57.677,ImplicitInfinitySC-SLOWTASK,2021.2.3,Win32,60.0276127,,,,space,4.3563,,,,,,,,,,j,0,1.2462,,0,71,71,8,1,An inch is finite,f,,
,,,,,,,,9245,2022-04-06_18h11.57.677,ImplicitInfinitySC-SLOWTASK,2021.2.3,Win32,60.0276127,,,,space,0.7077,,,,,,,,,,f,0,1.325,,0,72,72,41,1,The number five is infinite,j,,
,,,,,,,,9245,2022-04-06_18h11.57.677,ImplicitInfinitySC-SLOWTASK,2021.2.3,Win32,60.0276127,,,,space,4.3437,,,,,,,,,,j,1,1.2369,,0,73,73,30,1,Space cannot always be further divided,j,,
,,,,,,,,9245,2022-04-06_18h11.57.677,ImplicitInfinitySC-SLOWTASK,2021.2.3,Win32,60.0276127,,,,space,0.7024,,,,,,,,,,f,0,1.3327,,0,74,74,126,1,Humans can breathe water,j,,
,,,,,,,,9245,2022-04-06_18h11.57.677,ImplicitInfinitySC-SLOWTASK,2021.2.3,Win32,60.0276127,,,,space,4.3502,,,,,,,,,,j,1,1.2104,,0,75,75,65,1,Shadows are composed of matter,j,,
,,,,,,,,9245,2022-04-06_18h11.57.677,ImplicitInfinitySC-SLOWTASK,2021.2.3,Win32,60.0276127,,,,space,0.7039,,,,,,,,,,f,1,1.3285,,0,76,76,71,1,Oaks reproduce,f,,
,,,,,,,,9245,2022-04-06_18h11.57.677,ImplicitInfinitySC-SLOWTASK,2021.2.3,Win32,60.0276127,,,,space,4.3549,,,,,,,,,,j,0,1.2335,,0,77,77,29,1,Space can go on forever,f,,
,,,,,,,,9245,2022-04-06_18h11.57.677,ImplicitInfinitySC-SLOWTASK,2021.2.3,Win32,60.0276127,,,,space,0.7044,,,,,,,,,,f,1,1.3242,,0,78,78,44,1,The number five cannot go on forever,f,,
,,,,,,,,9245,2022-04-06_18h11.57.677,ImplicitInfinitySC-SLOWTASK,2021.2.3,Win32,60.0276127,,,,space,4.339,,,,,,,,,,j,0,1.233,,0,79,79,88,1,This sentence is written in English,f,,
,,,,,,,,9245,2022-04-06_18h11.57.677,ImplicitInfinitySC-SLOWTASK,2021.2.3,Win32,60.0276127,,,,space,0.7065,,,,,,,,,,f,1,1.3093,,0,80,80,89,1,A square is a shape,f,,
,,,,,,,,9245,2022-04-06_18h11.57.677,ImplicitInfinitySC-SLOWTASK,2021.2.3,Win32,60.0276127,,,,,,,,,,,,,,,,,,,,,,,,,,,
