SlowInstrKey.keys,SlowInstrKey.rt,SlowInstrLoop.thisRepN,SlowInstrLoop.thisTrialN,SlowInstrLoop.thisN,SlowInstrLoop.thisIndex,SlowInstrLoop.ran,SlowInstructions,participant,date,expName,psychopyVersion,OS,frameRate,key_resp_5.keys,key_resp_5.corr,key_resp_5.rt,key_resp_4.keys,key_resp_4.rt,slowpracticeloop.thisRepN,slowpracticeloop.thisTrialN,slowpracticeloop.thisN,slowpracticeloop.thisIndex,slowpracticeloop.ran,practicetext,practicecorrect,key_resp_3.keys,key_resp_3.rt,SlowKey.keys,SlowKey.corr,SlowKey.rt,encouragekey.keys,SlowLoop.thisRepN,SlowLoop.thisTrialN,SlowLoop.thisN,SlowLoop.thisIndex,SlowLoop.ran,Statement,Correct,encouragekey.rt,endstudykey.keys,endstudykey.rt
space,6.3983,0,0,0,0,1,"You will be shown a total of 80 statements pertaining to mathematics, science, and social concepts. Your task is to determine whether each statement is true or false. Some statements will be difficult and some will be easier.  We do not expect you to know the correct answer for all 80 statements.  Press SPACE to Continue",9345,2022-04-06_19h02.43.930,ImplicitInfinitySC-SLOWTASK,2021.2.3,Win32,59.68011459,,,,,,,,,,,,,,,,,,,,,,,,,,,,
space,6.8327,0,1,1,1,1,"We urge you to try your best and take your time. Each statement will appear on your screen and you will have 10 seconds to decide if it is true or false. You will hear a beep at 6 seconds that will prompt you to respond within the next 4 seconds. If you fail to respond within this time, the trial will be counted as incorrect and the next statement will appear. Press SPACE to continue",9345,2022-04-06_19h02.43.930,ImplicitInfinitySC-SLOWTASK,2021.2.3,Win32,59.68011459,,,,,,,,,,,,,,,,,,,,,,,,,,,,
space,20.0581,0,2,2,2,1,"If the statement is true, you will press the “F” key on your keyboard with your left pointer finger; if the statement is false, you will press the “J” key on your keyboard with your right pointer finger. Press SPACE to continue",9345,2022-04-06_19h02.43.930,ImplicitInfinitySC-SLOWTASK,2021.2.3,Win32,59.68011459,,,,,,,,,,,,,,,,,,,,,,,,,,,,
space,1.9173,0,3,3,3,1,Take your time and go slowly! You have 10 seconds to answer! Press SPACE to continue. ,9345,2022-04-06_19h02.43.930,ImplicitInfinitySC-SLOWTASK,2021.2.3,Win32,59.68011459,,,,,,,,,,,,,,,,,,,,,,,,,,,,
,,,,,,,,9345,2022-04-06_19h02.43.930,ImplicitInfinitySC-SLOWTASK,2021.2.3,Win32,59.68011459,f,1,2.2414,space,1.2369,0,0,0,4,1,Humans cannot breathe water,f,,,,,,,,,,,,,,,,
,,,,,,,,9345,2022-04-06_19h02.43.930,ImplicitInfinitySC-SLOWTASK,2021.2.3,Win32,59.68011459,f,1,1.6769,space,0.5785,0,1,1,2,1,Magenta is a color,f,,,,,,,,,,,,,,,,
,,,,,,,,9345,2022-04-06_19h02.43.930,ImplicitInfinitySC-SLOWTASK,2021.2.3,Win32,59.68011459,j,1,1.8677,space,1.2418,0,2,2,8,1,Mississippi is a country,j,,,,,,,,,,,,,,,,
,,,,,,,,9345,2022-04-06_19h02.43.930,ImplicitInfinitySC-SLOWTASK,2021.2.3,Win32,59.68011459,f,1,2.8997,space,0.6256,0,3,3,1,1,Dinosaurs are extinct,f,,,,,,,,,,,,,,,,
,,,,,,,,9345,2022-04-06_19h02.43.930,ImplicitInfinitySC-SLOWTASK,2021.2.3,Win32,59.68011459,f,1,1.6168,space,1.2523,0,4,4,3,1,A clock is used to tell time,f,,,,,,,,,,,,,,,,
,,,,,,,,9345,2022-04-06_19h02.43.930,ImplicitInfinitySC-SLOWTASK,2021.2.3,Win32,59.68011459,j,1,2.1007,space,0.7827,0,5,5,5,1,A truck is an animal,j,,,,,,,,,,,,,,,,
,,,,,,,,9345,2022-04-06_19h02.43.930,ImplicitInfinitySC-SLOWTASK,2021.2.3,Win32,59.68011459,j,1,2.4236,space,0.6184,0,6,6,9,1,Humans cannot eat food,j,,,,,,,,,,,,,,,,
,,,,,,,,9345,2022-04-06_19h02.43.930,ImplicitInfinitySC-SLOWTASK,2021.2.3,Win32,59.68011459,j,1,3.0208,space,0.7604,0,7,7,6,1,Jupiter is the planet we live on,j,,,,,,,,,,,,,,,,
,,,,,,,,9345,2022-04-06_19h02.43.930,ImplicitInfinitySC-SLOWTASK,2021.2.3,Win32,59.68011459,f,0,1.3558,space,1.0285,0,8,8,7,1,The Earth is a star,j,,,,,,,,,,,,,,,,
,,,,,,,,9345,2022-04-06_19h02.43.930,ImplicitInfinitySC-SLOWTASK,2021.2.3,Win32,59.68011459,f,1,1.5987,space,0.7363,0,9,9,0,1,A circle is a shape,f,,,,,,,,,,,,,,,,
,,,,,,,,9345,2022-04-06_19h02.43.930,ImplicitInfinitySC-SLOWTASK,2021.2.3,Win32,59.68011459,,,,space,0.9971,,,,,,,,space,5.8101,j,1,1.4128,,0,0,0,58,1,Clocks are alive,j,,,
,,,,,,,,9345,2022-04-06_19h02.43.930,ImplicitInfinitySC-SLOWTASK,2021.2.3,Win32,59.68011459,,,,space,0.4201,,,,,,,,,,j,1,2.0458,,0,1,1,113,1,Magenta is a shape,j,,,
,,,,,,,,9345,2022-04-06_19h02.43.930,ImplicitInfinitySC-SLOWTASK,2021.2.3,Win32,59.68011459,,,,space,0.6472,,,,,,,,,,j,1,2.5733,,0,2,2,59,1,Comets are alive,j,,,
,,,,,,,,9345,2022-04-06_19h02.43.930,ImplicitInfinitySC-SLOWTASK,2021.2.3,Win32,59.68011459,,,,space,0.853,,,,,,,,,,f,1,2.0888,,0,3,3,71,1,Oaks reproduce,f,,,
,,,,,,,,9345,2022-04-06_19h02.43.930,ImplicitInfinitySC-SLOWTASK,2021.2.3,Win32,59.68011459,,,,space,0.7312,,,,,,,,,,j,1,3.5092,,0,4,4,13,1,An inch can go on forever,j,,,
,,,,,,,,9345,2022-04-06_19h02.43.930,ImplicitInfinitySC-SLOWTASK,2021.2.3,Win32,59.68011459,,,,space,1.0066,,,,,,,,,,f,1,1.7084,,0,5,5,88,1,This sentence is written in English,f,,,
,,,,,,,,9345,2022-04-06_19h02.43.930,ImplicitInfinitySC-SLOWTASK,2021.2.3,Win32,59.68011459,,,,space,0.6229,,,,,,,,,,f,1,1.5283,,0,6,6,92,1,Dinosaurs are extinct,f,,,
,,,,,,,,9345,2022-04-06_19h02.43.930,ImplicitInfinitySC-SLOWTASK,2021.2.3,Win32,59.68011459,,,,space,0.5503,,,,,,,,,,j,1,2.4601,,0,7,7,38,1,Numbers cannot always be further divided,j,,,
,,,,,,,,9345,2022-04-06_19h02.43.930,ImplicitInfinitySC-SLOWTASK,2021.2.3,Win32,59.68011459,,,,space,0.3226,,,,,,,,,,j,1,1.6916,,0,8,8,127,1,A zebra is used to write,j,,,
,,,,,,,,9345,2022-04-06_19h02.43.930,ImplicitInfinitySC-SLOWTASK,2021.2.3,Win32,59.68011459,,,,space,0.5952,,,,,,,,,,f,1,1.6224,,0,9,9,2,1,A minute has an end,f,,,
,,,,,,,,9345,2022-04-06_19h02.43.930,ImplicitInfinitySC-SLOWTASK,2021.2.3,Win32,59.68011459,,,,space,1.8338,,,,,,,,,,j,1,1.8769,,0,10,10,43,1,The number five is endless,j,,,
,,,,,,,,9345,2022-04-06_19h02.43.930,ImplicitInfinitySC-SLOWTASK,2021.2.3,Win32,59.68011459,,,,space,0.5839,,,,,,,,,,j,1,2.1599,,0,11,11,3,1,A minute is endless,j,,,
,,,,,,,,9345,2022-04-06_19h02.43.930,ImplicitInfinitySC-SLOWTASK,2021.2.3,Win32,59.68011459,,,,space,0.4955,,,,,,,,,,f,1,2.0262,,0,12,12,76,1,Pollen has a molecular structure,f,,,
,,,,,,,,9345,2022-04-06_19h02.43.930,ImplicitInfinitySC-SLOWTASK,2021.2.3,Win32,59.68011459,,,,space,0.5677,,,,,,,,,,f,1,1.4917,,0,13,13,50,1,Turtles need nutrients,f,,,
,,,,,,,,9345,2022-04-06_19h02.43.930,ImplicitInfinitySC-SLOWTASK,2021.2.3,Win32,59.68011459,,,,space,0.3427,,,,,,,,,,j,1,1.438,,0,14,14,126,1,Humans can breathe water,j,,,
,,,,,,,,9345,2022-04-06_19h02.43.930,ImplicitInfinitySC-SLOWTASK,2021.2.3,Win32,59.68011459,,,,space,0.8685,,,,,,,,,,f,1,2.6332,,0,15,15,56,1,Diamonds have a molecular structure,f,,,
,,,,,,,,9345,2022-04-06_19h02.43.930,ImplicitInfinitySC-SLOWTASK,2021.2.3,Win32,59.68011459,,,,space,0.5088,,,,,,,,,,j,1,1.6713,,0,16,16,116,1,Fish cannot swim in the ocean,j,,,
,,,,,,,,9345,2022-04-06_19h02.43.930,ImplicitInfinitySC-SLOWTASK,2021.2.3,Win32,59.68011459,,,,space,0.2835,,,,,,,,,,f,1,1.2519,,0,17,17,49,1,Pelicans are alive,f,,,
,,,,,,,,9345,2022-04-06_19h02.43.930,ImplicitInfinitySC-SLOWTASK,2021.2.3,Win32,59.68011459,,,,space,0.3181,,,,,,,,,,j,1,1.4409,,0,18,18,117,1,Dolphins cannot swim in the ocean,j,,,
,,,,,,,,9345,2022-04-06_19h02.43.930,ImplicitInfinitySC-SLOWTASK,2021.2.3,Win32,59.68011459,,,,space,0.3675,,,,,,,,,,j,1,1.354,,0,19,19,5,1,A minute can go on forever,j,,,
,,,,,,,,9345,2022-04-06_19h02.43.930,ImplicitInfinitySC-SLOWTASK,2021.2.3,Win32,59.68011459,,,,space,0.3343,,,,,,,,,,j,1,2.9329,,0,20,20,109,1,A square is a color,j,,,
,,,,,,,,9345,2022-04-06_19h02.43.930,ImplicitInfinitySC-SLOWTASK,2021.2.3,Win32,59.68011459,,,,space,0.2516,,,,,,,,,,j,1,1.1544,,0,21,21,111,1,A circle is a flavor,j,,,
,,,,,,,,9345,2022-04-06_19h02.43.930,ImplicitInfinitySC-SLOWTASK,2021.2.3,Win32,59.68011459,,,,space,0.2685,,,,,,,,,,f,1,1.1839,,0,22,22,52,1,Frogs reproduce,f,,,
,,,,,,,,9345,2022-04-06_19h02.43.930,ImplicitInfinitySC-SLOWTASK,2021.2.3,Win32,59.68011459,,,,space,0.3282,,,,,,,,,,j,1,1.7344,,0,23,23,108,1,This sentence is written in Spanish,j,,,
,,,,,,,,9345,2022-04-06_19h02.43.930,ImplicitInfinitySC-SLOWTASK,2021.2.3,Win32,59.68011459,,,,space,0.2514,,,,,,,,,,j,1,1.3576,,0,24,24,87,1,Dreams have a molecular structure,j,,,
,,,,,,,,9345,2022-04-06_19h02.43.930,ImplicitInfinitySC-SLOWTASK,2021.2.3,Win32,59.68011459,,,,space,0.2195,,,,,,,,,,j,1,1.3686,,0,25,25,123,1,Mississippi is a country,j,,,
,,,,,,,,9345,2022-04-06_19h02.43.930,ImplicitInfinitySC-SLOWTASK,2021.2.3,Win32,59.68011459,,,,space,0.1917,,,,,,,,,,j,1,1.7432,,0,26,26,67,1,Gravity has a molecular structure,j,,,
,,,,,,,,9345,2022-04-06_19h02.43.930,ImplicitInfinitySC-SLOWTASK,2021.2.3,Win32,59.68011459,,,,space,0.1867,,,,,,,,,,j,1,1.0019,,0,27,27,78,1,Hammers are alive,j,,,
,,,,,,,,9345,2022-04-06_19h02.43.930,ImplicitInfinitySC-SLOWTASK,2021.2.3,Win32,59.68011459,,,,space,0.1919,,,,,,,,,,j,1,1.6558,,0,28,28,22,1,Time cannot always be further divided,j,,,
,,,,,,,,9345,2022-04-06_19h02.43.930,ImplicitInfinitySC-SLOWTASK,2021.2.3,Win32,59.68011459,,,,space,0.223,,,,,,,,,,j,1,1.2503,,0,29,29,86,1,Words have a molecular structure,j,,,
,,,,,,,,9345,2022-04-06_19h02.43.930,ImplicitInfinitySC-SLOWTASK,2021.2.3,Win32,59.68011459,,,,space,0.1776,,,,,,,,,,f,1,1.3167,,0,30,30,8,1,An inch is finite,f,,,
,,,,,,,,9345,2022-04-06_19h02.43.930,ImplicitInfinitySC-SLOWTASK,2021.2.3,Win32,59.68011459,,,,space,0.2011,,,,,,,,,,j,1,1.5162,,0,31,31,64,1,Echoes are composed of matter,j,,,
,,,,,,,,9345,2022-04-06_19h02.43.930,ImplicitInfinitySC-SLOWTASK,2021.2.3,Win32,59.68011459,,,,space,0.2282,,,,,,,,,,j,1,1.4209,,0,32,32,80,1,Mittens need nutrients,j,,,
,,,,,,,,9345,2022-04-06_19h02.43.930,ImplicitInfinitySC-SLOWTASK,2021.2.3,Win32,59.68011459,,,,space,0.168,,,,,,,,,,f,1,1.5444,,0,33,33,54,1,Dumbells are composed of matter,f,,,
,,,,,,,,9345,2022-04-06_19h02.43.930,ImplicitInfinitySC-SLOWTASK,2021.2.3,Win32,59.68011459,,,,space,0.2498,,,,,,,,,,f,1,1.1183,,0,34,34,69,1,Bacteria are alive,f,,,
,,,,,,,,9345,2022-04-06_19h02.43.930,ImplicitInfinitySC-SLOWTASK,2021.2.3,Win32,59.68011459,,,,space,0.2849,,,,,,,,,,j,1,2.1213,,0,35,35,14,1,An inch cannot always be further divided,j,,,
,,,,,,,,9345,2022-04-06_19h02.43.930,ImplicitInfinitySC-SLOWTASK,2021.2.3,Win32,59.68011459,,,,space,0.2258,,,,,,,,,,j,1,1.1235,,0,36,36,115,1,Yellow is an animal,j,,,
,,,,,,,,9345,2022-04-06_19h02.43.930,ImplicitInfinitySC-SLOWTASK,2021.2.3,Win32,59.68011459,,,,space,0.3355,,,,,,,,,,f,1,1.8787,,0,37,37,107,1,A pencil is used to write,f,,,
,,,,,,,,9345,2022-04-06_19h02.43.930,ImplicitInfinitySC-SLOWTASK,2021.2.3,Win32,59.68011459,,,,space,0.2681,,,,,,,,,,f,0,2.5174,,0,38,38,32,1,Numbers are finite,j,,,
,,,,,,,,9345,2022-04-06_19h02.43.930,ImplicitInfinitySC-SLOWTASK,2021.2.3,Win32,59.68011459,,,,space,0.6593,,,,,,,,,,j,1,2.1264,,0,39,39,6,1,A minute cannot always be further divided,j,,,
,,,,,,,,9345,2022-04-06_19h02.43.930,ImplicitInfinitySC-SLOWTASK,2021.2.3,Win32,59.68011459,,,,space,1.1695,,,,,,,,,,j,1,1.1882,space,0,40,40,119,1,A motorcycle is a person,j,1.2832,,
,,,,,,,,9345,2022-04-06_19h02.43.930,ImplicitInfinitySC-SLOWTASK,2021.2.3,Win32,59.68011459,,,,space,0.3023,,,,,,,,,,j,1,1.7499,,0,41,41,124,1,The president of the United States is Oprah,j,,,
,,,,,,,,9345,2022-04-06_19h02.43.930,ImplicitInfinitySC-SLOWTASK,2021.2.3,Win32,59.68011459,,,,space,0.2915,,,,,,,,,,j,1,2.8595,,0,42,42,41,1,The number five is infinite,j,,,
,,,,,,,,9345,2022-04-06_19h02.43.930,ImplicitInfinitySC-SLOWTASK,2021.2.3,Win32,59.68011459,,,,space,0.3187,,,,,,,,,,f,1,1.1534,,0,43,43,10,1,An inch has an end,f,,,
,,,,,,,,9345,2022-04-06_19h02.43.930,ImplicitInfinitySC-SLOWTASK,2021.2.3,Win32,59.68011459,,,,space,0.7494,,,,,,,,,,f,1,1.5887,,0,44,44,0,1,A minute is finite,f,,,
,,,,,,,,9345,2022-04-06_19h02.43.930,ImplicitInfinitySC-SLOWTASK,2021.2.3,Win32,59.68011459,,,,space,0.3531,,,,,,,,,,f,0,1.3012,,0,45,45,34,1,Numbers have an end,j,,,
,,,,,,,,9345,2022-04-06_19h02.43.930,ImplicitInfinitySC-SLOWTASK,2021.2.3,Win32,59.68011459,,,,space,0.3722,,,,,,,,,,f,1,1.4929,,0,46,46,39,1,Numbers can always be further divided,f,,,
,,,,,,,,9345,2022-04-06_19h02.43.930,ImplicitInfinitySC-SLOWTASK,2021.2.3,Win32,59.68011459,,,,space,0.2525,,,,,,,,,,f,1,1.9426,,0,47,47,25,1,Space is infinite,f,,,
,,,,,,,,9345,2022-04-06_19h02.43.930,ImplicitInfinitySC-SLOWTASK,2021.2.3,Win32,59.68011459,,,,space,0.6538,,,,,,,,,,j,1,1.1276,,0,48,48,62,1,Helicopters reproduce,j,,,
,,,,,,,,9345,2022-04-06_19h02.43.930,ImplicitInfinitySC-SLOWTASK,2021.2.3,Win32,59.68011459,,,,space,0.3021,,,,,,,,,,j,0,1.7407,,0,49,49,44,1,The number five cannot go on forever,f,,,
,,,,,,,,9345,2022-04-06_19h02.43.930,ImplicitInfinitySC-SLOWTASK,2021.2.3,Win32,59.68011459,,,,space,0.2767,,,,,,,,,,f,1,1.2373,,0,50,50,103,1,The United States is a country,f,,,
,,,,,,,,9345,2022-04-06_19h02.43.930,ImplicitInfinitySC-SLOWTASK,2021.2.3,Win32,59.68011459,,,,space,0.2183,,,,,,,,,,j,1,1.4735,,0,51,51,65,1,Shadows are composed of matter,j,,,
,,,,,,,,9345,2022-04-06_19h02.43.930,ImplicitInfinitySC-SLOWTASK,2021.2.3,Win32,59.68011459,,,,space,0.2287,,,,,,,,,,j,1,1.7249,,0,52,52,66,1,Music has a molecular structure,j,,,
,,,,,,,,9345,2022-04-06_19h02.43.930,ImplicitInfinitySC-SLOWTASK,2021.2.3,Win32,59.68011459,,,,space,0.2185,,,,,,,,,,j,1,1.6003,,0,53,53,46,1,The number five cannot always be further divided,j,,,
,,,,,,,,9345,2022-04-06_19h02.43.930,ImplicitInfinitySC-SLOWTASK,2021.2.3,Win32,59.68011459,,,,space,0.2181,,,,,,,,,,j,1,1.3372,,0,54,54,120,1,A truck is an animal,j,,,
,,,,,,,,9345,2022-04-06_19h02.43.930,ImplicitInfinitySC-SLOWTASK,2021.2.3,Win32,59.68011459,,,,space,0.2344,,,,,,,,,,f,1,1.1354,,0,55,55,91,1,A circle is a shape,f,,,
,,,,,,,,9345,2022-04-06_19h02.43.930,ImplicitInfinitySC-SLOWTASK,2021.2.3,Win32,59.68011459,,,,space,0.2015,,,,,,,,,,f,1,1.4973,,0,56,56,21,1,Time can go on forever,f,,,
,,,,,,,,9345,2022-04-06_19h02.43.930,ImplicitInfinitySC-SLOWTASK,2021.2.3,Win32,59.68011459,,,,space,0.2016,,,,,,,,,,f,1,1.5935,,0,57,57,93,1,Magenta is a color,f,,,
,,,,,,,,9345,2022-04-06_19h02.43.930,ImplicitInfinitySC-SLOWTASK,2021.2.3,Win32,59.68011459,,,,space,0.2712,,,,,,,,,,j,1,2.0187,,0,58,58,85,1,Thoughts are composed of matter,j,,,
,,,,,,,,9345,2022-04-06_19h02.43.930,ImplicitInfinitySC-SLOWTASK,2021.2.3,Win32,59.68011459,,,,space,0.319,,,,,,,,,,j,1,2.1282,,0,59,59,20,1,Time cannot go on forever,j,,,
,,,,,,,,9345,2022-04-06_19h02.43.930,ImplicitInfinitySC-SLOWTASK,2021.2.3,Win32,59.68011459,,,,space,0.2516,,,,,,,,,,j,1,1.6375,,0,60,60,118,1,A horse is used to tell time,j,,,
,,,,,,,,9345,2022-04-06_19h02.43.930,ImplicitInfinitySC-SLOWTASK,2021.2.3,Win32,59.68011459,,,,space,0.247,,,,,,,,,,f,1,1.9774,,0,61,61,19,1,Time is endless,f,,,
,,,,,,,,9345,2022-04-06_19h02.43.930,ImplicitInfinitySC-SLOWTASK,2021.2.3,Win32,59.68011459,,,,space,0.4534,,,,,,,,,,f,1,2.4506,,0,62,62,7,1,A minute can always be further divided,f,,,
,,,,,,,,9345,2022-04-06_19h02.43.930,ImplicitInfinitySC-SLOWTASK,2021.2.3,Win32,59.68011459,,,,space,0.3241,,,,,,,,,,f,1,2.7016,,0,63,63,15,1,An inch can be always further divided,f,,,
,,,,,,,,9345,2022-04-06_19h02.43.930,ImplicitInfinitySC-SLOWTASK,2021.2.3,Win32,59.68011459,,,,space,0.2454,,,,,,,,,,j,1,1.3508,,0,64,64,114,1,Lightbulbs are made of clay,j,,,
,,,,,,,,9345,2022-04-06_19h02.43.930,ImplicitInfinitySC-SLOWTASK,2021.2.3,Win32,59.68011459,,,,space,0.2367,,,,,,,,,,f,1,1.4679,,0,65,65,29,1,Space can go on forever,f,,,
,,,,,,,,9345,2022-04-06_19h02.43.930,ImplicitInfinitySC-SLOWTASK,2021.2.3,Win32,59.68011459,,,,space,0.27,,,,,,,,,,f,1,1.5508,,0,66,66,97,1,Dolphins can swim in the ocean,f,,,
,,,,,,,,9345,2022-04-06_19h02.43.930,ImplicitInfinitySC-SLOWTASK,2021.2.3,Win32,59.68011459,,,,space,0.519,,,,,,,,,,j,0,2.2758,,0,67,67,75,1,Frost is composed of matter,f,,,
,,,,,,,,9345,2022-04-06_19h02.43.930,ImplicitInfinitySC-SLOWTASK,2021.2.3,Win32,59.68011459,,,,space,0.2944,,,,,,,,,,f,1,1.4185,,0,68,68,31,1,Space can always be further divided,f,,,
,,,,,,,,9345,2022-04-06_19h02.43.930,ImplicitInfinitySC-SLOWTASK,2021.2.3,Win32,59.68011459,,,,space,0.5676,,,,,,,,,,f,1,1.2511,,0,69,69,100,1,A truck is a vehicle,f,,,
,,,,,,,,9345,2022-04-06_19h02.43.930,ImplicitInfinitySC-SLOWTASK,2021.2.3,Win32,59.68011459,,,,space,0.2891,,,,,,,,,,f,1,1.265,,0,70,70,96,1,Fish can swim in the ocean,f,,,
,,,,,,,,9345,2022-04-06_19h02.43.930,ImplicitInfinitySC-SLOWTASK,2021.2.3,Win32,59.68011459,,,,space,0.2434,,,,,,,,,,f,1,1.3631,,0,71,71,98,1,A clock is used to tell time,f,,,
,,,,,,,,9345,2022-04-06_19h02.43.930,ImplicitInfinitySC-SLOWTASK,2021.2.3,Win32,59.68011459,,,,space,0.3009,,,,,,,,,,j,1,1.3987,,0,72,72,26,1,Space has an end,j,,,
,,,,,,,,9345,2022-04-06_19h02.43.930,ImplicitInfinitySC-SLOWTASK,2021.2.3,Win32,59.68011459,,,,space,0.4246,,,,,,,,,,j,1,1.6452,,0,73,73,83,1,Songs can be put in a container,j,,,
,,,,,,,,9345,2022-04-06_19h02.43.930,ImplicitInfinitySC-SLOWTASK,2021.2.3,Win32,59.68011459,,,,space,0.2877,,,,,,,,,,f,1,1.2617,,0,74,74,48,1,Crocodiles are alive,f,,,
,,,,,,,,9345,2022-04-06_19h02.43.930,ImplicitInfinitySC-SLOWTASK,2021.2.3,Win32,59.68011459,,,,space,0.2848,,,,,,,,,,j,1,2.2337,,0,75,75,84,1,Silence is composed of matter,j,,,
,,,,,,,,9345,2022-04-06_19h02.43.930,ImplicitInfinitySC-SLOWTASK,2021.2.3,Win32,59.68011459,,,,space,0.1753,,,,,,,,,,j,0,1.6788,,0,76,76,4,1,A minute cannot go on forever,f,,,
,,,,,,,,9345,2022-04-06_19h02.43.930,ImplicitInfinitySC-SLOWTASK,2021.2.3,Win32,59.68011459,,,,space,0.2587,,,,,,,,,,f,1,2.1628,,0,77,77,51,1,Tigers reproduce,f,,,
,,,,,,,,9345,2022-04-06_19h02.43.930,ImplicitInfinitySC-SLOWTASK,2021.2.3,Win32,59.68011459,,,,space,0.3059,,,,,,,,,,j,1,1.2976,,0,78,78,61,1,Sailboats reproduce,j,,,
,,,,,,,,9345,2022-04-06_19h02.43.930,ImplicitInfinitySC-SLOWTASK,2021.2.3,Win32,59.68011459,,,,space,0.2685,,,,,,,,,,f,1,1.3321,,0,79,79,104,1,The United States has a president,f,,,
,,,,,,,,9345,2022-04-06_19h02.43.930,ImplicitInfinitySC-SLOWTASK,2021.2.3,Win32,59.68011459,,,,space,0.2674,,,,,,,,,,j,1,2.0443,,0,80,80,81,1,Tables reproduce,j,,,
,,,,,,,,9345,2022-04-06_19h02.43.930,ImplicitInfinitySC-SLOWTASK,2021.2.3,Win32,59.68011459,,,,,,,,,,,,,,,,,,,,,,,,,,,space,20.3232
