SlowInstrKey.keys,SlowInstrKey.rt,SlowInstrLoop.thisRepN,SlowInstrLoop.thisTrialN,SlowInstrLoop.thisN,SlowInstrLoop.thisIndex,SlowInstrLoop.ran,SlowInstructions,participant,date,expName,psychopyVersion,OS,frameRate,key_resp_5.keys,key_resp_5.corr,key_resp_5.rt,key_resp_4.keys,key_resp_4.rt,slowpracticeloop.thisRepN,slowpracticeloop.thisTrialN,slowpracticeloop.thisN,slowpracticeloop.thisIndex,slowpracticeloop.ran,practicetext,practicecorrect,key_resp_3.keys,key_resp_3.rt,SlowKey.keys,SlowKey.corr,SlowKey.rt,encouragekey.keys,SlowLoop.thisRepN,SlowLoop.thisTrialN,SlowLoop.thisN,SlowLoop.thisIndex,SlowLoop.ran,Statement,Correct,encouragekey.rt,endstudykey.keys
space,2.8123,0,0,0,0,1,"You will be shown a total of 80 statements pertaining to mathematics, science, and social concepts. Your task is to determine whether each statement is true or false. Some statements will be difficult and some will be easier.  We do not expect you to know the correct answer for all 80 statements.  Press SPACE to Continue",9460,2022-04-06_19h01.21.812,ImplicitInfinitySC-SLOWTASK,2021.2.3,Win32,165.3439153,,,,,,,,,,,,,,,,,,,,,,,,,,,
space,3.3048,0,1,1,1,1,"We urge you to try your best and take your time. Each statement will appear on your screen and you will have 10 seconds to decide if it is true or false. You will hear a beep at 6 seconds that will prompt you to respond within the next 4 seconds. If you fail to respond within this time, the trial will be counted as incorrect and the next statement will appear. Press SPACE to continue",9460,2022-04-06_19h01.21.812,ImplicitInfinitySC-SLOWTASK,2021.2.3,Win32,165.3439153,,,,,,,,,,,,,,,,,,,,,,,,,,,
space,10.9311,0,2,2,2,1,"If the statement is true, you will press the “F” key on your keyboard with your left pointer finger; if the statement is false, you will press the “J” key on your keyboard with your right pointer finger. Press SPACE to continue",9460,2022-04-06_19h01.21.812,ImplicitInfinitySC-SLOWTASK,2021.2.3,Win32,165.3439153,,,,,,,,,,,,,,,,,,,,,,,,,,,
space,4.0748,0,3,3,3,1,Take your time and go slowly! You have 10 seconds to answer! Press SPACE to continue. ,9460,2022-04-06_19h01.21.812,ImplicitInfinitySC-SLOWTASK,2021.2.3,Win32,165.3439153,,,,,,,,,,,,,,,,,,,,,,,,,,,
,,,,,,,,9460,2022-04-06_19h01.21.812,ImplicitInfinitySC-SLOWTASK,2021.2.3,Win32,165.3439153,f,1,1.4051,space,2.8774,0,0,0,2,1,Magenta is a color,f,,,,,,,,,,,,,,,
,,,,,,,,9460,2022-04-06_19h01.21.812,ImplicitInfinitySC-SLOWTASK,2021.2.3,Win32,165.3439153,f,1,1.112,space,0.8379,0,1,1,1,1,Dinosaurs are extinct,f,,,,,,,,,,,,,,,
,,,,,,,,9460,2022-04-06_19h01.21.812,ImplicitInfinitySC-SLOWTASK,2021.2.3,Win32,165.3439153,f,1,1.2595,space,0.6146,0,2,2,4,1,Humans cannot breathe water,f,,,,,,,,,,,,,,,
,,,,,,,,9460,2022-04-06_19h01.21.812,ImplicitInfinitySC-SLOWTASK,2021.2.3,Win32,165.3439153,f,1,1.1876,space,0.6573,0,3,3,3,1,A clock is used to tell time,f,,,,,,,,,,,,,,,
,,,,,,,,9460,2022-04-06_19h01.21.812,ImplicitInfinitySC-SLOWTASK,2021.2.3,Win32,165.3439153,j,1,0.9855,space,0.8142,0,4,4,7,1,The Earth is a star,j,,,,,,,,,,,,,,,
,,,,,,,,9460,2022-04-06_19h01.21.812,ImplicitInfinitySC-SLOWTASK,2021.2.3,Win32,165.3439153,j,1,1.2604,space,0.7126,0,5,5,5,1,A truck is an animal,j,,,,,,,,,,,,,,,
,,,,,,,,9460,2022-04-06_19h01.21.812,ImplicitInfinitySC-SLOWTASK,2021.2.3,Win32,165.3439153,j,1,1.1584,space,0.9867,0,6,6,9,1,Humans cannot eat food,j,,,,,,,,,,,,,,,
,,,,,,,,9460,2022-04-06_19h01.21.812,ImplicitInfinitySC-SLOWTASK,2021.2.3,Win32,165.3439153,j,1,1.2858,space,1.0892,0,7,7,8,1,Mississippi is a country,j,,,,,,,,,,,,,,,
,,,,,,,,9460,2022-04-06_19h01.21.812,ImplicitInfinitySC-SLOWTASK,2021.2.3,Win32,165.3439153,j,1,1.0064,space,0.6141,0,8,8,6,1,Jupiter is the planet we live on,j,,,,,,,,,,,,,,,
,,,,,,,,9460,2022-04-06_19h01.21.812,ImplicitInfinitySC-SLOWTASK,2021.2.3,Win32,165.3439153,f,1,0.9504,space,0.6355,0,9,9,0,1,A circle is a shape,f,,,,,,,,,,,,,,,
,,,,,,,,9460,2022-04-06_19h01.21.812,ImplicitInfinitySC-SLOWTASK,2021.2.3,Win32,165.3439153,,,,,,,,,,,,,space,65.0803,j,1,2.008,,0,0,0,120,1,A truck is an animal,j,,
,,,,,,,,9460,2022-04-06_19h01.21.812,ImplicitInfinitySC-SLOWTASK,2021.2.3,Win32,165.3439153,,,,,,,,,,,,,,,,0,,,0,1,1,27,1,Space is endless,f,,
,,,,,,,,9460,2022-04-06_19h01.21.812,ImplicitInfinitySC-SLOWTASK,2021.2.3,Win32,165.3439153,,,,space,1.7366,,,,,,,,,,j,1,1.946,,0,2,2,111,1,A circle is a flavor,j,,
,,,,,,,,9460,2022-04-06_19h01.21.812,ImplicitInfinitySC-SLOWTASK,2021.2.3,Win32,165.3439153,,,,space,0.8673,,,,,,,,,,j,1,1.1658,,0,3,3,85,1,Thoughts are composed of matter,j,,
,,,,,,,,9460,2022-04-06_19h01.21.812,ImplicitInfinitySC-SLOWTASK,2021.2.3,Win32,165.3439153,,,,space,0.5245,,,,,,,,,,j,1,0.9906,,0,4,4,62,1,Helicopters reproduce,j,,
,,,,,,,,9460,2022-04-06_19h01.21.812,ImplicitInfinitySC-SLOWTASK,2021.2.3,Win32,165.3439153,,,,space,0.4863,,,,,,,,,,f,1,0.741,,0,5,5,91,1,A circle is a shape,f,,
,,,,,,,,9460,2022-04-06_19h01.21.812,ImplicitInfinitySC-SLOWTASK,2021.2.3,Win32,165.3439153,,,,space,0.3845,,,,,,,,,,j,1,0.8008,,0,6,6,81,1,Tables reproduce,j,,
,,,,,,,,9460,2022-04-06_19h01.21.812,ImplicitInfinitySC-SLOWTASK,2021.2.3,Win32,165.3439153,,,,space,0.529,,,,,,,,,,f,1,1.8245,,0,7,7,7,1,A minute can always be further divided,f,,
,,,,,,,,9460,2022-04-06_19h01.21.812,ImplicitInfinitySC-SLOWTASK,2021.2.3,Win32,165.3439153,,,,space,0.4411,,,,,,,,,,j,1,0.8792,,0,8,8,126,1,Humans can breathe water,j,,
,,,,,,,,9460,2022-04-06_19h01.21.812,ImplicitInfinitySC-SLOWTASK,2021.2.3,Win32,165.3439153,,,,space,0.4155,,,,,,,,,,f,1,1.1617,,0,9,9,77,1,Saliva has a molecular structure,f,,
,,,,,,,,9460,2022-04-06_19h01.21.812,ImplicitInfinitySC-SLOWTASK,2021.2.3,Win32,165.3439153,,,,space,0.4084,,,,,,,,,,j,1,1.4223,,0,10,10,87,1,Dreams have a molecular structure,j,,
,,,,,,,,9460,2022-04-06_19h01.21.812,ImplicitInfinitySC-SLOWTASK,2021.2.3,Win32,165.3439153,,,,space,0.4744,,,,,,,,,,f,1,1.9348,,0,11,11,40,1,The number five is finite,f,,
,,,,,,,,9460,2022-04-06_19h01.21.812,ImplicitInfinitySC-SLOWTASK,2021.2.3,Win32,165.3439153,,,,space,0.4926,,,,,,,,,,f,1,1.2982,,0,12,12,71,1,Oaks reproduce,f,,
,,,,,,,,9460,2022-04-06_19h01.21.812,ImplicitInfinitySC-SLOWTASK,2021.2.3,Win32,165.3439153,,,,space,0.4558,,,,,,,,,,j,1,0.9407,,0,13,13,5,1,A minute can go on forever,j,,
,,,,,,,,9460,2022-04-06_19h01.21.812,ImplicitInfinitySC-SLOWTASK,2021.2.3,Win32,165.3439153,,,,space,0.3188,,,,,,,,,,f,1,0.7908,,0,14,14,89,1,A square is a shape,f,,
,,,,,,,,9460,2022-04-06_19h01.21.812,ImplicitInfinitySC-SLOWTASK,2021.2.3,Win32,165.3439153,,,,space,1.1244,,,,,,,,,,j,0,1.134,,0,15,15,4,1,A minute cannot go on forever,f,,
,,,,,,,,9460,2022-04-06_19h01.21.812,ImplicitInfinitySC-SLOWTASK,2021.2.3,Win32,165.3439153,,,,space,0.2103,,,,,,,,,,f,1,1.3638,,0,16,16,35,1,Numbers are endless,f,,
,,,,,,,,9460,2022-04-06_19h01.21.812,ImplicitInfinitySC-SLOWTASK,2021.2.3,Win32,165.3439153,,,,space,0.1521,,,,,,,,,,f,1,1.1407,,0,17,17,50,1,Turtles need nutrients,f,,
,,,,,,,,9460,2022-04-06_19h01.21.812,ImplicitInfinitySC-SLOWTASK,2021.2.3,Win32,165.3439153,,,,space,0.1456,,,,,,,,,,j,1,1.0684,,0,18,18,109,1,A square is a color,j,,
,,,,,,,,9460,2022-04-06_19h01.21.812,ImplicitInfinitySC-SLOWTASK,2021.2.3,Win32,165.3439153,,,,space,0.6674,,,,,,,,,,f,1,1.1612,,0,19,19,44,1,The number five cannot go on forever,f,,
,,,,,,,,9460,2022-04-06_19h01.21.812,ImplicitInfinitySC-SLOWTASK,2021.2.3,Win32,165.3439153,,,,space,0.3698,,,,,,,,,,j,1,1.3277,,0,20,20,28,1,Space cannot go on forever,j,,
,,,,,,,,9460,2022-04-06_19h01.21.812,ImplicitInfinitySC-SLOWTASK,2021.2.3,Win32,165.3439153,,,,space,0.5006,,,,,,,,,,f,1,1.9177,,0,21,21,37,1,Numbers can go on forever,f,,
,,,,,,,,9460,2022-04-06_19h01.21.812,ImplicitInfinitySC-SLOWTASK,2021.2.3,Win32,165.3439153,,,,space,0.226,,,,,,,,,,j,1,3.1634,,0,22,22,63,1,Color can be put in a container,j,,
,,,,,,,,9460,2022-04-06_19h01.21.812,ImplicitInfinitySC-SLOWTASK,2021.2.3,Win32,165.3439153,,,,,,,,,,,,,,,,0,,,0,23,23,23,1,Time can always be further divided,f,,
,,,,,,,,9460,2022-04-06_19h01.21.812,ImplicitInfinitySC-SLOWTASK,2021.2.3,Win32,165.3439153,,,,space,0.5213,,,,,,,,,,j,1,1.4183,,0,24,24,67,1,Gravity has a molecular structure,j,,
,,,,,,,,9460,2022-04-06_19h01.21.812,ImplicitInfinitySC-SLOWTASK,2021.2.3,Win32,165.3439153,,,,space,0.3278,,,,,,,,,,j,0,2.0363,,0,25,25,90,1,A triangle is not an animal,f,,
,,,,,,,,9460,2022-04-06_19h01.21.812,ImplicitInfinitySC-SLOWTASK,2021.2.3,Win32,165.3439153,,,,space,0.1731,,,,,,,,,,j,1,1.1713,,0,26,26,20,1,Time cannot go on forever,j,,
,,,,,,,,9460,2022-04-06_19h01.21.812,ImplicitInfinitySC-SLOWTASK,2021.2.3,Win32,165.3439153,,,,space,0.2023,,,,,,,,,,j,1,1.1535,,0,27,27,116,1,Fish cannot swim in the ocean,j,,
,,,,,,,,9460,2022-04-06_19h01.21.812,ImplicitInfinitySC-SLOWTASK,2021.2.3,Win32,165.3439153,,,,space,0.2746,,,,,,,,,,j,1,7.2181,,0,28,28,6,1,A minute cannot always be further divided,j,,
,,,,,,,,9460,2022-04-06_19h01.21.812,ImplicitInfinitySC-SLOWTASK,2021.2.3,Win32,165.3439153,,,,space,0.1215,,,,,,,,,,f,1,1.1153,,0,29,29,88,1,This sentence is written in English,f,,
,,,,,,,,9460,2022-04-06_19h01.21.812,ImplicitInfinitySC-SLOWTASK,2021.2.3,Win32,165.3439153,,,,space,0.1198,,,,,,,,,,f,1,0.7975,,0,30,30,69,1,Bacteria are alive,f,,
,,,,,,,,9460,2022-04-06_19h01.21.812,ImplicitInfinitySC-SLOWTASK,2021.2.3,Win32,165.3439153,,,,space,0.1366,,,,,,,,,,j,1,1.7334,,0,31,31,18,1,Time has an end,j,,
,,,,,,,,9460,2022-04-06_19h01.21.812,ImplicitInfinitySC-SLOWTASK,2021.2.3,Win32,165.3439153,,,,space,0.1347,,,,,,,,,,f,1,0.9418,,0,32,32,100,1,A truck is a vehicle,f,,
,,,,,,,,9460,2022-04-06_19h01.21.812,ImplicitInfinitySC-SLOWTASK,2021.2.3,Win32,165.3439153,,,,space,0.1441,,,,,,,,,,j,1,1.0439,,0,33,33,32,1,Numbers are finite,j,,
,,,,,,,,9460,2022-04-06_19h01.21.812,ImplicitInfinitySC-SLOWTASK,2021.2.3,Win32,165.3439153,,,,space,0.1006,,,,,,,,,,f,1,1.4796,,0,34,34,70,1,Grass needs nutrients,f,,
,,,,,,,,9460,2022-04-06_19h01.21.812,ImplicitInfinitySC-SLOWTASK,2021.2.3,Win32,165.3439153,,,,space,0.1217,,,,,,,,,,f,1,1.5942,,0,35,35,53,1,Bricks can be put in a container,f,,
,,,,,,,,9460,2022-04-06_19h01.21.812,ImplicitInfinitySC-SLOWTASK,2021.2.3,Win32,165.3439153,,,,space,0.1251,,,,,,,,,,f,1,0.6272,,0,36,36,97,1,Dolphins can swim in the ocean,f,,
,,,,,,,,9460,2022-04-06_19h01.21.812,ImplicitInfinitySC-SLOWTASK,2021.2.3,Win32,165.3439153,,,,space,0.1305,,,,,,,,,,f,1,1.2635,,0,37,37,8,1,An inch is finite,f,,
,,,,,,,,9460,2022-04-06_19h01.21.812,ImplicitInfinitySC-SLOWTASK,2021.2.3,Win32,165.3439153,,,,space,0.1586,,,,,,,,,,f,1,0.8995,,0,38,38,92,1,Dinosaurs are extinct,f,,
,,,,,,,,9460,2022-04-06_19h01.21.812,ImplicitInfinitySC-SLOWTASK,2021.2.3,Win32,165.3439153,,,,space,0.1335,,,,,,,,,,j,1,1.6499,,0,39,39,121,1,Jupiter is the planet we live on,j,,
,,,,,,,,9460,2022-04-06_19h01.21.812,ImplicitInfinitySC-SLOWTASK,2021.2.3,Win32,165.3439153,,,,space,0.6518,,,,,,,,,,j,0,2.2717,space,0,40,40,47,1,The number five can always be further divided,f,0.0916,
,,,,,,,,9460,2022-04-06_19h01.21.812,ImplicitInfinitySC-SLOWTASK,2021.2.3,Win32,165.3439153,,,,space,0.1466,,,,,,,,,,j,1,0.9692,,0,41,41,113,1,Magenta is a shape,j,,
,,,,,,,,9460,2022-04-06_19h01.21.812,ImplicitInfinitySC-SLOWTASK,2021.2.3,Win32,165.3439153,,,,space,0.1273,,,,,,,,,,j,1,1.3943,,0,42,42,36,1,Numbers cannot go on forever,j,,
,,,,,,,,9460,2022-04-06_19h01.21.812,ImplicitInfinitySC-SLOWTASK,2021.2.3,Win32,165.3439153,,,,space,0.1349,,,,,,,,,,j,1,2.4813,,0,43,43,112,1,Dinosaurs are not extinct,j,,
,,,,,,,,9460,2022-04-06_19h01.21.812,ImplicitInfinitySC-SLOWTASK,2021.2.3,Win32,165.3439153,,,,space,0.0798,,,,,,,,,,j,1,2.7232,,0,44,44,61,1,Sailboats reproduce,j,,
,,,,,,,,9460,2022-04-06_19h01.21.812,ImplicitInfinitySC-SLOWTASK,2021.2.3,Win32,165.3439153,,,,space,0.138,,,,,,,,,,f,1,1.0843,,0,45,45,42,1,The number five has an end,f,,
,,,,,,,,9460,2022-04-06_19h01.21.812,ImplicitInfinitySC-SLOWTASK,2021.2.3,Win32,165.3439153,,,,space,0.2915,,,,,,,,,,j,1,0.82,,0,46,46,82,1,Stones reproduce,j,,
,,,,,,,,9460,2022-04-06_19h01.21.812,ImplicitInfinitySC-SLOWTASK,2021.2.3,Win32,165.3439153,,,,space,0.1013,,,,,,,,,,f,1,1.0501,,0,47,47,21,1,Time can go on forever,f,,
,,,,,,,,9460,2022-04-06_19h01.21.812,ImplicitInfinitySC-SLOWTASK,2021.2.3,Win32,165.3439153,,,,space,0.1342,,,,,,,,,,j,1,1.2198,,0,48,48,125,1,There are ninty states in the United States,j,,
,,,,,,,,9460,2022-04-06_19h01.21.812,ImplicitInfinitySC-SLOWTASK,2021.2.3,Win32,165.3439153,,,,space,0.1153,,,,,,,,,,f,1,5.4543,,0,49,49,55,1,Concrete is composed of matter,f,,
,,,,,,,,9460,2022-04-06_19h01.21.812,ImplicitInfinitySC-SLOWTASK,2021.2.3,Win32,165.3439153,,,,space,0.1307,,,,,,,,,,j,1,4.5571,,0,50,50,119,1,A motorcycle is a person,j,,
,,,,,,,,9460,2022-04-06_19h01.21.812,ImplicitInfinitySC-SLOWTASK,2021.2.3,Win32,165.3439153,,,,space,0.1598,,,,,,,,,,j,1,1.0071,,0,51,51,123,1,Mississippi is a country,j,,
,,,,,,,,9460,2022-04-06_19h01.21.812,ImplicitInfinitySC-SLOWTASK,2021.2.3,Win32,165.3439153,,,,space,0.1311,,,,,,,,,,j,1,0.8698,,0,52,52,66,1,Music has a molecular structure,j,,
,,,,,,,,9460,2022-04-06_19h01.21.812,ImplicitInfinitySC-SLOWTASK,2021.2.3,Win32,165.3439153,,,,space,0.122,,,,,,,,,,f,1,4.6182,,0,53,53,73,1,Bubbles can be put in a container,f,,
,,,,,,,,9460,2022-04-06_19h01.21.812,ImplicitInfinitySC-SLOWTASK,2021.2.3,Win32,165.3439153,,,,space,0.1427,,,,,,,,,,j,1,2.4225,,0,54,54,22,1,Time cannot always be further divided,j,,
,,,,,,,,9460,2022-04-06_19h01.21.812,ImplicitInfinitySC-SLOWTASK,2021.2.3,Win32,165.3439153,,,,space,0.1057,,,,,,,,,,f,1,0.7415,,0,55,55,102,1,The Earth is a planet,f,,
,,,,,,,,9460,2022-04-06_19h01.21.812,ImplicitInfinitySC-SLOWTASK,2021.2.3,Win32,165.3439153,,,,space,0.1863,,,,,,,,,,j,1,0.9798,,0,56,56,108,1,This sentence is written in Spanish,j,,
,,,,,,,,9460,2022-04-06_19h01.21.812,ImplicitInfinitySC-SLOWTASK,2021.2.3,Win32,165.3439153,,,,space,0.1249,,,,,,,,,,f,1,1.0758,,0,57,57,72,1,Mushrooms reproduce,f,,
,,,,,,,,9460,2022-04-06_19h01.21.812,ImplicitInfinitySC-SLOWTASK,2021.2.3,Win32,165.3439153,,,,space,0.1198,,,,,,,,,,j,1,2.9493,,0,58,58,43,1,The number five is endless,j,,
,,,,,,,,9460,2022-04-06_19h01.21.812,ImplicitInfinitySC-SLOWTASK,2021.2.3,Win32,165.3439153,,,,space,0.1036,,,,,,,,,,f,1,1.4067,,0,59,59,96,1,Fish can swim in the ocean,f,,
,,,,,,,,9460,2022-04-06_19h01.21.812,ImplicitInfinitySC-SLOWTASK,2021.2.3,Win32,165.3439153,,,,space,0.1213,,,,,,,,,,f,1,2.2064,,0,60,60,75,1,Frost is composed of matter,f,,
,,,,,,,,9460,2022-04-06_19h01.21.812,ImplicitInfinitySC-SLOWTASK,2021.2.3,Win32,165.3439153,,,,space,0.1274,,,,,,,,,,f,1,1.5332,,0,61,61,56,1,Diamonds have a molecular structure,f,,
,,,,,,,,9460,2022-04-06_19h01.21.812,ImplicitInfinitySC-SLOWTASK,2021.2.3,Win32,165.3439153,,,,space,0.1401,,,,,,,,,,j,1,1.0741,,0,62,62,118,1,A horse is used to tell time,j,,
,,,,,,,,9460,2022-04-06_19h01.21.812,ImplicitInfinitySC-SLOWTASK,2021.2.3,Win32,165.3439153,,,,space,0.1472,,,,,,,,,,j,1,0.9372,,0,63,63,80,1,Mittens need nutrients,j,,
,,,,,,,,9460,2022-04-06_19h01.21.812,ImplicitInfinitySC-SLOWTASK,2021.2.3,Win32,165.3439153,,,,space,0.1522,,,,,,,,,,j,1,1.3462,,0,64,64,83,1,Songs can be put in a container,j,,
,,,,,,,,9460,2022-04-06_19h01.21.812,ImplicitInfinitySC-SLOWTASK,2021.2.3,Win32,165.3439153,,,,space,0.378,,,,,,,,,,j,1,2.8154,,0,65,65,86,1,Words have a molecular structure,j,,
,,,,,,,,9460,2022-04-06_19h01.21.812,ImplicitInfinitySC-SLOWTASK,2021.2.3,Win32,165.3439153,,,,space,0.0778,,,,,,,,,,f,1,0.9942,,0,66,66,103,1,The United States is a country,f,,
,,,,,,,,9460,2022-04-06_19h01.21.812,ImplicitInfinitySC-SLOWTASK,2021.2.3,Win32,165.3439153,,,,space,0.0851,,,,,,,,,,j,1,1.208,,0,67,67,13,1,An inch can go on forever,j,,
,,,,,,,,9460,2022-04-06_19h01.21.812,ImplicitInfinitySC-SLOWTASK,2021.2.3,Win32,165.3439153,,,,space,0.1273,,,,,,,,,,f,1,0.982,,0,68,68,57,1,Rocks have a molecular structure,f,,
,,,,,,,,9460,2022-04-06_19h01.21.812,ImplicitInfinitySC-SLOWTASK,2021.2.3,Win32,165.3439153,,,,space,0.1294,,,,,,,,,,f,1,2.4334,,0,69,69,12,1,An inch cannot go on forever,f,,
,,,,,,,,9460,2022-04-06_19h01.21.812,ImplicitInfinitySC-SLOWTASK,2021.2.3,Win32,165.3439153,,,,space,0.0966,,,,,,,,,,j,1,1.1297,,0,70,70,3,1,A minute is endless,j,,
,,,,,,,,9460,2022-04-06_19h01.21.812,ImplicitInfinitySC-SLOWTASK,2021.2.3,Win32,165.3439153,,,,space,0.1176,,,,,,,,,,j,1,1.0309,,0,71,71,127,1,A zebra is used to write,j,,
,,,,,,,,9460,2022-04-06_19h01.21.812,ImplicitInfinitySC-SLOWTASK,2021.2.3,Win32,165.3439153,,,,space,0.1456,,,,,,,,,,j,1,0.892,,0,72,72,79,1,Forks are alive,j,,
,,,,,,,,9460,2022-04-06_19h01.21.812,ImplicitInfinitySC-SLOWTASK,2021.2.3,Win32,165.3439153,,,,space,0.1126,,,,,,,,,,j,1,1.2333,,0,73,73,117,1,Dolphins cannot swim in the ocean,j,,
,,,,,,,,9460,2022-04-06_19h01.21.812,ImplicitInfinitySC-SLOWTASK,2021.2.3,Win32,165.3439153,,,,space,0.1049,,,,,,,,,,j,1,1.4484,,0,74,74,114,1,Lightbulbs are made of clay,j,,
,,,,,,,,9460,2022-04-06_19h01.21.812,ImplicitInfinitySC-SLOWTASK,2021.2.3,Win32,165.3439153,,,,space,0.1091,,,,,,,,,,f,1,0.8549,,0,75,75,98,1,A clock is used to tell time,f,,
,,,,,,,,9460,2022-04-06_19h01.21.812,ImplicitInfinitySC-SLOWTASK,2021.2.3,Win32,165.3439153,,,,space,0.089,,,,,,,,,,j,0,2.5757,,0,76,76,39,1,Numbers can always be further divided,f,,
,,,,,,,,9460,2022-04-06_19h01.21.812,ImplicitInfinitySC-SLOWTASK,2021.2.3,Win32,165.3439153,,,,space,0.1515,,,,,,,,,,f,1,1.1036,,0,77,77,51,1,Tigers reproduce,f,,
,,,,,,,,9460,2022-04-06_19h01.21.812,ImplicitInfinitySC-SLOWTASK,2021.2.3,Win32,165.3439153,,,,space,0.0827,,,,,,,,,,j,1,0.9634,,0,78,78,124,1,The president of the United States is Oprah,j,,
,,,,,,,,9460,2022-04-06_19h01.21.812,ImplicitInfinitySC-SLOWTASK,2021.2.3,Win32,165.3439153,,,,space,0.1516,,,,,,,,,,f,1,1.324,,0,79,79,25,1,Space is infinite,f,,
,,,,,,,,9460,2022-04-06_19h01.21.812,ImplicitInfinitySC-SLOWTASK,2021.2.3,Win32,165.3439153,,,,space,0.1274,,,,,,,,,,f,1,2.1027,,0,80,80,101,1,Jupiter is in our solar system,f,,
,,,,,,,,9460,2022-04-06_19h01.21.812,ImplicitInfinitySC-SLOWTASK,2021.2.3,Win32,165.3439153,,,,,,,,,,,,,,,,,,,,,,,,,,,
