SlowInstrKey.keys,SlowInstrKey.rt,SlowInstrLoop.thisRepN,SlowInstrLoop.thisTrialN,SlowInstrLoop.thisN,SlowInstrLoop.thisIndex,SlowInstrLoop.ran,SlowInstructions,participant,date,expName,psychopyVersion,OS,frameRate,key_resp_5.keys,key_resp_5.corr,key_resp_5.rt,key_resp_4.keys,key_resp_4.rt,slowpracticeloop.thisRepN,slowpracticeloop.thisTrialN,slowpracticeloop.thisN,slowpracticeloop.thisIndex,slowpracticeloop.ran,practicetext,practicecorrect,key_resp_3.keys,key_resp_3.rt,SlowKey.keys,SlowKey.corr,SlowKey.rt,encouragekey.keys,SlowLoop.thisRepN,SlowLoop.thisTrialN,SlowLoop.thisN,SlowLoop.thisIndex,SlowLoop.ran,Statement,Correct,encouragekey.rt,endstudykey.keys,endstudykey.rt
space,7.8058,0,0,0,0,1,"You will be shown a total of 80 statements pertaining to mathematics, science, and social concepts. Your task is to determine whether each statement is true or false. Some statements will be difficult and some will be easier.  We do not expect you to know the correct answer for all 80 statements.  Press SPACE to Continue",9506,2022-04-06_18h59.36.089,ImplicitInfinitySC-SLOWTASK,2021.2.3,Win32,60.0348202,,,,,,,,,,,,,,,,,,,,,,,,,,,,
space,8.4772,0,1,1,1,1,"We urge you to try your best and take your time. Each statement will appear on your screen and you will have 10 seconds to decide if it is true or false. You will hear a beep at 6 seconds that will prompt you to respond within the next 4 seconds. If you fail to respond within this time, the trial will be counted as incorrect and the next statement will appear. Press SPACE to continue",9506,2022-04-06_18h59.36.089,ImplicitInfinitySC-SLOWTASK,2021.2.3,Win32,60.0348202,,,,,,,,,,,,,,,,,,,,,,,,,,,,
space,5.2289,0,2,2,2,1,"If the statement is true, you will press the “F” key on your keyboard with your left pointer finger; if the statement is false, you will press the “J” key on your keyboard with your right pointer finger. Press SPACE to continue",9506,2022-04-06_18h59.36.089,ImplicitInfinitySC-SLOWTASK,2021.2.3,Win32,60.0348202,,,,,,,,,,,,,,,,,,,,,,,,,,,,
space,1.6935,0,3,3,3,1,Take your time and go slowly! You have 10 seconds to answer! Press SPACE to continue. ,9506,2022-04-06_18h59.36.089,ImplicitInfinitySC-SLOWTASK,2021.2.3,Win32,60.0348202,,,,,,,,,,,,,,,,,,,,,,,,,,,,
,,,,,,,,9506,2022-04-06_18h59.36.089,ImplicitInfinitySC-SLOWTASK,2021.2.3,Win32,60.0348202,j,1,3.319,space,3.5238,0,0,0,9,1,Humans cannot eat food,j,,,,,,,,,,,,,,,,
,,,,,,,,9506,2022-04-06_18h59.36.089,ImplicitInfinitySC-SLOWTASK,2021.2.3,Win32,60.0348202,f,1,2.4441,space,0.8605,0,1,1,4,1,Humans cannot breathe water,f,,,,,,,,,,,,,,,,
,,,,,,,,9506,2022-04-06_18h59.36.089,ImplicitInfinitySC-SLOWTASK,2021.2.3,Win32,60.0348202,f,0,3.2462,space,0.7126,0,2,2,8,1,Mississippi is a country,j,,,,,,,,,,,,,,,,
,,,,,,,,9506,2022-04-06_18h59.36.089,ImplicitInfinitySC-SLOWTASK,2021.2.3,Win32,60.0348202,f,1,1.6308,space,0.447,0,3,3,2,1,Magenta is a color,f,,,,,,,,,,,,,,,,
,,,,,,,,9506,2022-04-06_18h59.36.089,ImplicitInfinitySC-SLOWTASK,2021.2.3,Win32,60.0348202,f,1,1.7774,space,0.2958,0,4,4,3,1,A clock is used to tell time,f,,,,,,,,,,,,,,,,
,,,,,,,,9506,2022-04-06_18h59.36.089,ImplicitInfinitySC-SLOWTASK,2021.2.3,Win32,60.0348202,j,1,1.286,space,0.2876,0,5,5,5,1,A truck is an animal,j,,,,,,,,,,,,,,,,
,,,,,,,,9506,2022-04-06_18h59.36.089,ImplicitInfinitySC-SLOWTASK,2021.2.3,Win32,60.0348202,f,1,0.8698,space,0.2619,0,6,6,0,1,A circle is a shape,f,,,,,,,,,,,,,,,,
,,,,,,,,9506,2022-04-06_18h59.36.089,ImplicitInfinitySC-SLOWTASK,2021.2.3,Win32,60.0348202,f,1,1.3784,space,0.2201,0,7,7,1,1,Dinosaurs are extinct,f,,,,,,,,,,,,,,,,
,,,,,,,,9506,2022-04-06_18h59.36.089,ImplicitInfinitySC-SLOWTASK,2021.2.3,Win32,60.0348202,j,1,1.7428,space,0.274,0,8,8,6,1,Jupiter is the planet we live on,j,,,,,,,,,,,,,,,,
,,,,,,,,9506,2022-04-06_18h59.36.089,ImplicitInfinitySC-SLOWTASK,2021.2.3,Win32,60.0348202,j,1,2.1646,space,0.1907,0,9,9,7,1,The Earth is a star,j,,,,,,,,,,,,,,,,
,,,,,,,,9506,2022-04-06_18h59.36.089,ImplicitInfinitySC-SLOWTASK,2021.2.3,Win32,60.0348202,,,,space,0.2206,,,,,,,,space,5.0352,j,1,1.8405,,0,0,0,117,1,Dolphins cannot swim in the ocean,j,,,
,,,,,,,,9506,2022-04-06_18h59.36.089,ImplicitInfinitySC-SLOWTASK,2021.2.3,Win32,60.0348202,,,,space,0.1974,,,,,,,,,,j,1,2.0626,,0,1,1,126,1,Humans can breathe water,j,,,
,,,,,,,,9506,2022-04-06_18h59.36.089,ImplicitInfinitySC-SLOWTASK,2021.2.3,Win32,60.0348202,,,,space,0.21,,,,,,,,,,j,1,1.1477,,0,2,2,59,1,Comets are alive,j,,,
,,,,,,,,9506,2022-04-06_18h59.36.089,ImplicitInfinitySC-SLOWTASK,2021.2.3,Win32,60.0348202,,,,space,0.2167,,,,,,,,,,j,1,1.128,,0,3,3,111,1,A circle is a flavor,j,,,
,,,,,,,,9506,2022-04-06_18h59.36.089,ImplicitInfinitySC-SLOWTASK,2021.2.3,Win32,60.0348202,,,,space,0.1531,,,,,,,,,,j,1,1.7177,,0,4,4,63,1,Color can be put in a container,j,,,
,,,,,,,,9506,2022-04-06_18h59.36.089,ImplicitInfinitySC-SLOWTASK,2021.2.3,Win32,60.0348202,,,,space,1.0051,,,,,,,,,,f,1,3.2007,,0,5,5,33,1,Numbers are infinite,f,,,
,,,,,,,,9506,2022-04-06_18h59.36.089,ImplicitInfinitySC-SLOWTASK,2021.2.3,Win32,60.0348202,,,,space,0.3044,,,,,,,,,,f,1,1.6905,,0,6,6,68,1,Algae is alive,f,,,
,,,,,,,,9506,2022-04-06_18h59.36.089,ImplicitInfinitySC-SLOWTASK,2021.2.3,Win32,60.0348202,,,,space,0.1669,,,,,,,,,,j,1,1.3015,,0,7,7,115,1,Yellow is an animal,j,,,
,,,,,,,,9506,2022-04-06_18h59.36.089,ImplicitInfinitySC-SLOWTASK,2021.2.3,Win32,60.0348202,,,,space,0.267,,,,,,,,,,j,1,1.8703,,0,8,8,28,1,Space cannot go on forever,j,,,
,,,,,,,,9506,2022-04-06_18h59.36.089,ImplicitInfinitySC-SLOWTASK,2021.2.3,Win32,60.0348202,,,,space,0.1699,,,,,,,,,,f,1,3.9743,,0,9,9,31,1,Space can always be further divided,f,,,
,,,,,,,,9506,2022-04-06_18h59.36.089,ImplicitInfinitySC-SLOWTASK,2021.2.3,Win32,60.0348202,,,,space,0.1545,,,,,,,,,,f,1,1.442,,0,10,10,103,1,The United States is a country,f,,,
,,,,,,,,9506,2022-04-06_18h59.36.089,ImplicitInfinitySC-SLOWTASK,2021.2.3,Win32,60.0348202,,,,space,0.1911,,,,,,,,,,j,1,2.0988,,0,11,11,41,1,The number five is infinite,j,,,
,,,,,,,,9506,2022-04-06_18h59.36.089,ImplicitInfinitySC-SLOWTASK,2021.2.3,Win32,60.0348202,,,,space,0.2075,,,,,,,,,,f,1,3.399,,0,12,12,54,1,Dumbells are composed of matter,f,,,
,,,,,,,,9506,2022-04-06_18h59.36.089,ImplicitInfinitySC-SLOWTASK,2021.2.3,Win32,60.0348202,,,,space,0.2213,,,,,,,,,,f,1,2.2791,,0,13,13,40,1,The number five is finite,f,,,
,,,,,,,,9506,2022-04-06_18h59.36.089,ImplicitInfinitySC-SLOWTASK,2021.2.3,Win32,60.0348202,,,,space,0.2135,,,,,,,,,,f,1,1.3699,,0,14,14,51,1,Tigers reproduce,f,,,
,,,,,,,,9506,2022-04-06_18h59.36.089,ImplicitInfinitySC-SLOWTASK,2021.2.3,Win32,60.0348202,,,,space,0.1764,,,,,,,,,,j,1,2.0603,,0,15,15,67,1,Gravity has a molecular structure,j,,,
,,,,,,,,9506,2022-04-06_18h59.36.089,ImplicitInfinitySC-SLOWTASK,2021.2.3,Win32,60.0348202,,,,space,0.1621,,,,,,,,,,f,1,1.4445,,0,16,16,101,1,Jupiter is in our solar system,f,,,
,,,,,,,,9506,2022-04-06_18h59.36.089,ImplicitInfinitySC-SLOWTASK,2021.2.3,Win32,60.0348202,,,,space,0.2127,,,,,,,,,,j,1,1.1499,,0,17,17,58,1,Clocks are alive,j,,,
,,,,,,,,9506,2022-04-06_18h59.36.089,ImplicitInfinitySC-SLOWTASK,2021.2.3,Win32,60.0348202,,,,space,0.1551,,,,,,,,,,f,1,1.957,,0,18,18,23,1,Time can always be further divided,f,,,
,,,,,,,,9506,2022-04-06_18h59.36.089,ImplicitInfinitySC-SLOWTASK,2021.2.3,Win32,60.0348202,,,,space,0.1553,,,,,,,,,,j,1,2.8855,,0,19,19,110,1,A triangle is an animal,j,,,
,,,,,,,,9506,2022-04-06_18h59.36.089,ImplicitInfinitySC-SLOWTASK,2021.2.3,Win32,60.0348202,,,,space,0.1805,,,,,,,,,,j,0,2.7725,,0,20,20,55,1,Concrete is composed of matter,f,,,
,,,,,,,,9506,2022-04-06_18h59.36.089,ImplicitInfinitySC-SLOWTASK,2021.2.3,Win32,60.0348202,,,,space,0.2446,,,,,,,,,,j,1,2.3819,,0,21,21,20,1,Time cannot go on forever,j,,,
,,,,,,,,9506,2022-04-06_18h59.36.089,ImplicitInfinitySC-SLOWTASK,2021.2.3,Win32,60.0348202,,,,space,0.1841,,,,,,,,,,j,1,1.4361,,0,22,22,62,1,Helicopters reproduce,j,,,
,,,,,,,,9506,2022-04-06_18h59.36.089,ImplicitInfinitySC-SLOWTASK,2021.2.3,Win32,60.0348202,,,,space,0.2107,,,,,,,,,,j,1,1.3508,,0,23,23,124,1,The president of the United States is Oprah,j,,,
,,,,,,,,9506,2022-04-06_18h59.36.089,ImplicitInfinitySC-SLOWTASK,2021.2.3,Win32,60.0348202,,,,space,0.1952,,,,,,,,,,j,1,1.1515,,0,24,24,109,1,A square is a color,j,,,
,,,,,,,,9506,2022-04-06_18h59.36.089,ImplicitInfinitySC-SLOWTASK,2021.2.3,Win32,60.0348202,,,,space,0.2516,,,,,,,,,,j,1,1.9104,,0,25,25,108,1,This sentence is written in Spanish,j,,,
,,,,,,,,9506,2022-04-06_18h59.36.089,ImplicitInfinitySC-SLOWTASK,2021.2.3,Win32,60.0348202,,,,space,0.2037,,,,,,,,,,j,0,3.2154,,0,26,26,15,1,An inch can be always further divided,f,,,
,,,,,,,,9506,2022-04-06_18h59.36.089,ImplicitInfinitySC-SLOWTASK,2021.2.3,Win32,60.0348202,,,,space,0.2191,,,,,,,,,,f,1,1.8894,,0,27,27,35,1,Numbers are endless,f,,,
,,,,,,,,9506,2022-04-06_18h59.36.089,ImplicitInfinitySC-SLOWTASK,2021.2.3,Win32,60.0348202,,,,space,0.239,,,,,,,,,,f,1,3.0321,,0,28,28,2,1,A minute has an end,f,,,
,,,,,,,,9506,2022-04-06_18h59.36.089,ImplicitInfinitySC-SLOWTASK,2021.2.3,Win32,60.0348202,,,,space,0.1763,,,,,,,,,,f,1,2.279,,0,29,29,8,1,An inch is finite,f,,,
,,,,,,,,9506,2022-04-06_18h59.36.089,ImplicitInfinitySC-SLOWTASK,2021.2.3,Win32,60.0348202,,,,space,0.2793,,,,,,,,,,f,1,1.5059,,0,30,30,88,1,This sentence is written in English,f,,,
,,,,,,,,9506,2022-04-06_18h59.36.089,ImplicitInfinitySC-SLOWTASK,2021.2.3,Win32,60.0348202,,,,space,0.221,,,,,,,,,,j,1,2.1988,,0,31,31,80,1,Mittens need nutrients,j,,,
,,,,,,,,9506,2022-04-06_18h59.36.089,ImplicitInfinitySC-SLOWTASK,2021.2.3,Win32,60.0348202,,,,space,0.1603,,,,,,,,,,f,1,1.5751,,0,32,32,99,1,A motorcycle is a vehicle,f,,,
,,,,,,,,9506,2022-04-06_18h59.36.089,ImplicitInfinitySC-SLOWTASK,2021.2.3,Win32,60.0348202,,,,space,0.1929,,,,,,,,,,j,1,2.0256,,0,33,33,14,1,An inch cannot always be further divided,j,,,
,,,,,,,,9506,2022-04-06_18h59.36.089,ImplicitInfinitySC-SLOWTASK,2021.2.3,Win32,60.0348202,,,,space,0.1312,,,,,,,,,,j,1,2.4331,,0,34,34,112,1,Dinosaurs are not extinct,j,,,
,,,,,,,,9506,2022-04-06_18h59.36.089,ImplicitInfinitySC-SLOWTASK,2021.2.3,Win32,60.0348202,,,,space,0.1863,,,,,,,,,,j,1,1.8156,,0,35,35,34,1,Numbers have an end,j,,,
,,,,,,,,9506,2022-04-06_18h59.36.089,ImplicitInfinitySC-SLOWTASK,2021.2.3,Win32,60.0348202,,,,space,0.3259,,,,,,,,,,j,0,4.9318,,0,36,36,47,1,The number five can always be further divided,f,,,
,,,,,,,,9506,2022-04-06_18h59.36.089,ImplicitInfinitySC-SLOWTASK,2021.2.3,Win32,60.0348202,,,,space,0.1994,,,,,,,,,,f,1,4.4742,,0,37,37,74,1,Foam is composed of matter,f,,,
,,,,,,,,9506,2022-04-06_18h59.36.089,ImplicitInfinitySC-SLOWTASK,2021.2.3,Win32,60.0348202,,,,space,0.1917,,,,,,,,,,j,1,1.6653,,0,38,38,118,1,A horse is used to tell time,j,,,
,,,,,,,,9506,2022-04-06_18h59.36.089,ImplicitInfinitySC-SLOWTASK,2021.2.3,Win32,60.0348202,,,,space,0.3114,,,,,,,,,,j,1,2.2994,,0,39,39,83,1,Songs can be put in a container,j,,,
,,,,,,,,9506,2022-04-06_18h59.36.089,ImplicitInfinitySC-SLOWTASK,2021.2.3,Win32,60.0348202,,,,space,0.9616,,,,,,,,,,j,1,2.8152,space,0,40,40,84,1,Silence is composed of matter,j,0.7713,,
,,,,,,,,9506,2022-04-06_18h59.36.089,ImplicitInfinitySC-SLOWTASK,2021.2.3,Win32,60.0348202,,,,space,0.2662,,,,,,,,,,f,1,2.0277,,0,41,41,25,1,Space is infinite,f,,,
,,,,,,,,9506,2022-04-06_18h59.36.089,ImplicitInfinitySC-SLOWTASK,2021.2.3,Win32,60.0348202,,,,space,0.177,,,,,,,,,,f,1,1.0953,,0,42,42,95,1,Yellow is a color,f,,,
,,,,,,,,9506,2022-04-06_18h59.36.089,ImplicitInfinitySC-SLOWTASK,2021.2.3,Win32,60.0348202,,,,space,0.1832,,,,,,,,,,f,1,1.3652,,0,43,43,57,1,Rocks have a molecular structure,f,,,
,,,,,,,,9506,2022-04-06_18h59.36.089,ImplicitInfinitySC-SLOWTASK,2021.2.3,Win32,60.0348202,,,,space,0.1327,,,,,,,,,,f,1,1.9303,,0,44,44,10,1,An inch has an end,f,,,
,,,,,,,,9506,2022-04-06_18h59.36.089,ImplicitInfinitySC-SLOWTASK,2021.2.3,Win32,60.0348202,,,,space,0.1892,,,,,,,,,,f,1,1.2573,,0,45,45,49,1,Pelicans are alive,f,,,
,,,,,,,,9506,2022-04-06_18h59.36.089,ImplicitInfinitySC-SLOWTASK,2021.2.3,Win32,60.0348202,,,,space,0.2905,,,,,,,,,,f,0,4.2903,,0,46,46,6,1,A minute cannot always be further divided,j,,,
,,,,,,,,9506,2022-04-06_18h59.36.089,ImplicitInfinitySC-SLOWTASK,2021.2.3,Win32,60.0348202,,,,space,0.1433,,,,,,,,,,f,1,1.788,,0,47,47,19,1,Time is endless,f,,,
,,,,,,,,9506,2022-04-06_18h59.36.089,ImplicitInfinitySC-SLOWTASK,2021.2.3,Win32,60.0348202,,,,space,0.1508,,,,,,,,,,f,1,1.2386,,0,48,48,89,1,A square is a shape,f,,,
,,,,,,,,9506,2022-04-06_18h59.36.089,ImplicitInfinitySC-SLOWTASK,2021.2.3,Win32,60.0348202,,,,space,0.1469,,,,,,,,,,f,1,3.5288,,0,49,49,90,1,A triangle is not an animal,f,,,
,,,,,,,,9506,2022-04-06_18h59.36.089,ImplicitInfinitySC-SLOWTASK,2021.2.3,Win32,60.0348202,,,,space,0.1366,,,,,,,,,,f,1,1.5879,,0,50,50,21,1,Time can go on forever,f,,,
,,,,,,,,9506,2022-04-06_18h59.36.089,ImplicitInfinitySC-SLOWTASK,2021.2.3,Win32,60.0348202,,,,space,0.306,,,,,,,,,,j,1,3.5578,,0,51,51,65,1,Shadows are composed of matter,j,,,
,,,,,,,,9506,2022-04-06_18h59.36.089,ImplicitInfinitySC-SLOWTASK,2021.2.3,Win32,60.0348202,,,,space,0.1794,,,,,,,,,,j,1,1.147,,0,52,52,60,1,Robots need nutrients,j,,,
,,,,,,,,9506,2022-04-06_18h59.36.089,ImplicitInfinitySC-SLOWTASK,2021.2.3,Win32,60.0348202,,,,space,0.1747,,,,,,,,,,j,0,3.2108,,0,53,53,7,1,A minute can always be further divided,f,,,
,,,,,,,,9506,2022-04-06_18h59.36.089,ImplicitInfinitySC-SLOWTASK,2021.2.3,Win32,60.0348202,,,,space,0.1766,,,,,,,,,,j,0,2.8609,,0,54,54,4,1,A minute cannot go on forever,f,,,
,,,,,,,,9506,2022-04-06_18h59.36.089,ImplicitInfinitySC-SLOWTASK,2021.2.3,Win32,60.0348202,,,,space,0.2034,,,,,,,,,,f,1,5.3257,,0,55,55,72,1,Mushrooms reproduce,f,,,
,,,,,,,,9506,2022-04-06_18h59.36.089,ImplicitInfinitySC-SLOWTASK,2021.2.3,Win32,60.0348202,,,,space,0.2334,,,,,,,,,,j,1,1.5313,,0,56,56,43,1,The number five is endless,j,,,
,,,,,,,,9506,2022-04-06_18h59.36.089,ImplicitInfinitySC-SLOWTASK,2021.2.3,Win32,60.0348202,,,,space,0.2097,,,,,,,,,,j,1,1.5004,,0,57,57,9,1,An inch is infinite,j,,,
,,,,,,,,9506,2022-04-06_18h59.36.089,ImplicitInfinitySC-SLOWTASK,2021.2.3,Win32,60.0348202,,,,space,0.1683,,,,,,,,,,f,1,1.7034,,0,58,58,17,1,Time is infinite,f,,,
,,,,,,,,9506,2022-04-06_18h59.36.089,ImplicitInfinitySC-SLOWTASK,2021.2.3,Win32,60.0348202,,,,space,0.2406,,,,,,,,,,j,1,2.4381,,0,59,59,5,1,A minute can go on forever,j,,,
,,,,,,,,9506,2022-04-06_18h59.36.089,ImplicitInfinitySC-SLOWTASK,2021.2.3,Win32,60.0348202,,,,space,0.1722,,,,,,,,,,j,0,1.3422,,0,60,60,44,1,The number five cannot go on forever,f,,,
,,,,,,,,9506,2022-04-06_18h59.36.089,ImplicitInfinitySC-SLOWTASK,2021.2.3,Win32,60.0348202,,,,space,0.2176,,,,,,,,,,j,1,2.1333,,0,61,61,1,1,A minute is infinite,j,,,
,,,,,,,,9506,2022-04-06_18h59.36.089,ImplicitInfinitySC-SLOWTASK,2021.2.3,Win32,60.0348202,,,,space,0.1688,,,,,,,,,,j,1,1.0476,,0,62,62,81,1,Tables reproduce,j,,,
,,,,,,,,9506,2022-04-06_18h59.36.089,ImplicitInfinitySC-SLOWTASK,2021.2.3,Win32,60.0348202,,,,space,0.3066,,,,,,,,,,f,1,2.399,,0,63,63,97,1,Dolphins can swim in the ocean,f,,,
,,,,,,,,9506,2022-04-06_18h59.36.089,ImplicitInfinitySC-SLOWTASK,2021.2.3,Win32,60.0348202,,,,space,0.2341,,,,,,,,,,j,1,1.1504,,0,64,64,119,1,A motorcycle is a person,j,,,
,,,,,,,,9506,2022-04-06_18h59.36.089,ImplicitInfinitySC-SLOWTASK,2021.2.3,Win32,60.0348202,,,,space,0.2178,,,,,,,,,,j,1,0.9649,,0,65,65,79,1,Forks are alive,j,,,
,,,,,,,,9506,2022-04-06_18h59.36.089,ImplicitInfinitySC-SLOWTASK,2021.2.3,Win32,60.0348202,,,,space,0.1892,,,,,,,,,,f,1,1.6963,,0,66,66,0,1,A minute is finite,f,,,
,,,,,,,,9506,2022-04-06_18h59.36.089,ImplicitInfinitySC-SLOWTASK,2021.2.3,Win32,60.0348202,,,,space,0.1718,,,,,,,,,,j,1,1.8323,,0,67,67,120,1,A truck is an animal,j,,,
,,,,,,,,9506,2022-04-06_18h59.36.089,ImplicitInfinitySC-SLOWTASK,2021.2.3,Win32,60.0348202,,,,space,0.1898,,,,,,,,,,j,1,2.5023,,0,68,68,85,1,Thoughts are composed of matter,j,,,
,,,,,,,,9506,2022-04-06_18h59.36.089,ImplicitInfinitySC-SLOWTASK,2021.2.3,Win32,60.0348202,,,,space,0.1751,,,,,,,,,,f,0,2.5915,,0,69,69,38,1,Numbers cannot always be further divided,j,,,
,,,,,,,,9506,2022-04-06_18h59.36.089,ImplicitInfinitySC-SLOWTASK,2021.2.3,Win32,60.0348202,,,,space,0.1777,,,,,,,,,,f,1,1.2657,,0,70,70,69,1,Bacteria are alive,f,,,
,,,,,,,,9506,2022-04-06_18h59.36.089,ImplicitInfinitySC-SLOWTASK,2021.2.3,Win32,60.0348202,,,,space,0.1773,,,,,,,,,,f,1,1.6423,,0,71,71,73,1,Bubbles can be put in a container,f,,,
,,,,,,,,9506,2022-04-06_18h59.36.089,ImplicitInfinitySC-SLOWTASK,2021.2.3,Win32,60.0348202,,,,space,0.1402,,,,,,,,,,f,1,1.1207,,0,72,72,29,1,Space can go on forever,f,,,
,,,,,,,,9506,2022-04-06_18h59.36.089,ImplicitInfinitySC-SLOWTASK,2021.2.3,Win32,60.0348202,,,,space,0.2284,,,,,,,,,,j,1,1.4581,,0,73,73,66,1,Music has a molecular structure,j,,,
,,,,,,,,9506,2022-04-06_18h59.36.089,ImplicitInfinitySC-SLOWTASK,2021.2.3,Win32,60.0348202,,,,space,0.1851,,,,,,,,,,j,1,1.2857,,0,74,74,113,1,Magenta is a shape,j,,,
,,,,,,,,9506,2022-04-06_18h59.36.089,ImplicitInfinitySC-SLOWTASK,2021.2.3,Win32,60.0348202,,,,space,0.2008,,,,,,,,,,j,1,1.7361,,0,75,75,36,1,Numbers cannot go on forever,j,,,
,,,,,,,,9506,2022-04-06_18h59.36.089,ImplicitInfinitySC-SLOWTASK,2021.2.3,Win32,60.0348202,,,,space,0.1891,,,,,,,,,,j,1,1.8256,,0,76,76,116,1,Fish cannot swim in the ocean,j,,,
,,,,,,,,9506,2022-04-06_18h59.36.089,ImplicitInfinitySC-SLOWTASK,2021.2.3,Win32,60.0348202,,,,space,0.1707,,,,,,,,,,f,1,1.6241,,0,77,77,50,1,Turtles need nutrients,f,,,
,,,,,,,,9506,2022-04-06_18h59.36.089,ImplicitInfinitySC-SLOWTASK,2021.2.3,Win32,60.0348202,,,,space,0.1305,,,,,,,,,,f,1,1.5603,,0,78,78,76,1,Pollen has a molecular structure,f,,,
,,,,,,,,9506,2022-04-06_18h59.36.089,ImplicitInfinitySC-SLOWTASK,2021.2.3,Win32,60.0348202,,,,space,0.1927,,,,,,,,,,j,0,1.4328,,0,79,79,71,1,Oaks reproduce,f,,,
,,,,,,,,9506,2022-04-06_18h59.36.089,ImplicitInfinitySC-SLOWTASK,2021.2.3,Win32,60.0348202,,,,space,0.2357,,,,,,,,,,j,0,4.3136,,0,80,80,39,1,Numbers can always be further divided,f,,,
,,,,,,,,9506,2022-04-06_18h59.36.089,ImplicitInfinitySC-SLOWTASK,2021.2.3,Win32,60.0348202,,,,,,,,,,,,,,,,,,,,,,,,,,,space,25.6886
